,AccélérationX,AccélérationY,AccélérationZ,GyroX,GyroY,GyroZ,Température,GForce
7,-2.857887255055273,-0.8332173784289753,6.381131367547194,4.322698367323752,-10.654240364280966,-6.662176193082222,27.02,2.6
3,-1.2826988268057558,-2.6668285717552846,4.466510882248014,8.921874880616166,-24.760712752076333,-2.232507490851629,27.07,1.28
4,6.132648071110617,-0.13920918474883592,19.54802253734266,-1.1914349110714157,-19.450231759394622,-0.29472657817750414,27.12,1.9
2,3.4780431611536655,-0.3068364594623178,14.1907990076215,-1.7164079716216871,6.8312280040769515,2.441499885556354,27.07,0.84
3,-1.4416152228600863,-2.4360744913593635,4.213844657426072,7.139713277481419,-24.96126315022219,-2.45355535705016,27.07,1.28
2,3.7139734596182072,-0.3804189504902634,14.736713206791537,-1.1016940841790128,8.32044271888966,3.349494562269089,27.07,0.84
5,-1.1034216125471465,0.27712281064287236,11.570930191432227,1.0590331781015934,10.192664903191984,-0.11180813362194841,27.02,0.99
7,-3.0651889013858247,-1.0014424732166893,6.428107316012758,4.604368387371134,-10.115788940109471,-5.9557334640672694,27.02,2.6
3,-1.600613352630697,-2.4041944176144936,3.851422921508621,6.839211416555617,-24.2927214235185,-2.27089409422505,27.07,1.28
7,-2.5202924614863367,-1.243836716725151,5.755792309241407,4.459506031860656,-9.899404350074498,-5.984197252947004,27.02,2.6
2,3.7638024775345884,0.17207114652990996,14.18176289008663,-2.231054686502607,7.772272026407339,3.5671850417858395,27.07,0.84
5,-0.5460039999773287,-0.3752004718537362,11.433371426603216,1.8478622539581329,11.011711588786103,-0.20918147302300005,27.02,0.99
4,0.0,0.0,0.0,0.0,0.0,0.0,27.12,3.803684504497489
7,-2.801757549472349,-1.4892871142272877,6.014114040351496,4.408077500112476,-9.466138930588631,-6.24258904660261,27.02,2.6
7,-3.445545100131862,-0.2060258764324392,6.205129445528573,5.500619042257161,-9.594625564867112,-5.56480073522711,27.02,2.6
9,0.41184773655375506,-1.515264362124874,7.423589329559655,-0.44067565511551754,18.82867558481517,1.1114035748024877,27.17,0.65
0,0.5122357141735098,2.761098938206009,15.663230845724785,-6.661164146907281,34.608936188010695,-0.07986051014314632,27.07,1.66
9,-0.5159383703848589,-1.4694448750133706,7.797751881789475,-1.7393192242392561,19.37519417596083,0.46038146250522366,27.17,0.65
8,6.579711641859224,-1.4571060481478,18.915411849266413,-1.2947859367135588,0.6066576137310805,-2.4175470430930943,26.98,2.25
9,-1.5946523615263721,-1.3925463912149811,6.934419019567598,-1.0704594540332577,19.542744184069726,1.317630798834371,27.17,0.65
1,4.197287645358519,-0.37890554331418147,14.445692371606855,86.66804111079534,83.91049202547337,44.69603904426415,27.12,0.47868184009531894
8,8.119884068018923,-1.4803720486340028,19.296559470654064,-0.7601079063159619,0.4168412476947043,-2.4157205862795625,26.98,2.25
6,0.5163856848726835,-1.7381692040310783,12.8951945957097,-5.981025562362971,4.224912046723249,1.0090540047085843,27.07,0.88
9,-0.9823595594523047,-1.9215989285043782,6.317153198667667,-1.0927612795236825,20.148856057558966,0.5138515336881909,27.17,0.65
1,4.866629285164905,-0.9948210915879302,15.076262682549402,-3.321783313249551,19.51788584216403,-0.5560677208921376,27.12,0.81
8,7.083297429552528,0.03071745119316993,19.67809426154817,-1.3615588205677536,0.652127133344142,-3.002286719976155,26.98,2.25
3,-1.0972902960968454,-1.8774790301348188,3.649834176359951,7.618656875532611,-23.281871374343922,-2.579481104559912,27.07,1.28
3,-1.4486591615035933,-2.790823337921873,3.4086682794174794,7.7412467706387345,-24.597800950270155,-3.212649052135163,27.07,1.28
0,-0.07576888575237806,2.7680071116308245,15.883201351883963,-7.8502508512825315,34.80623744814308,0.11428348642416963,27.07,1.66
3,-1.1940109049969163,-1.7523509999244644,3.7875352109310154,7.963323630943167,-24.387298467340646,-2.361781204157214,27.07,1.28
7,-3.297851601251417,-0.6976937188279648,5.903629963122888,4.707207143491694,-9.31161820310984,-5.689327019728361,27.02,2.6
2,4.008811906737462,-0.6672467652883475,13.873890112552312,-2.169358940273031,8.165815405072022,3.475496273389547,27.07,0.84
6,0.9726127228913456,-2.8052878284912026,12.805486648565152,-5.120852174762272,3.5434154632849117,0.9636294017509928,27.07,0.88
9,-5.698026629828963,-1.7789186456430186,28.17983038727384,-0.9400760167298371,19.462145125666563,0.011086053664829176,27.17,1.306924784206367
5,-1.5706222485949948,-0.4039137656785259,10.38797343104464,-0.10588771503220235,10.294998790606366,-1.2193208602003862,27.02,0.99
9,-0.8739960645553433,-1.6036704019726729,8.292516167238137,-0.7342222783293793,19.09296270258777,0.7605619501903164,27.17,0.65
0,0.048329874579943755,1.653729820585494,15.892131946275724,-8.332959870829612,35.08165672940718,0.5902493005734057,27.07,1.66
9,-0.634807770033178,-0.7923482545225077,7.774916810744082,-1.2716955847247398,20.16961761980172,0.575130955260367,27.17,0.65
8,6.206761049635666,-1.3028900162439019,20.058435094095064,-0.782907029869575,-1.3848239153519677,-3.390573751886949,26.98,2.25
3,-0.7821408406752016,-1.5558481563049782,4.487586761467865,7.674399344043146,-24.149854699368376,-2.5152494698245826,27.07,1.28
3,-1.4672420902901675,-1.8996172508002114,4.459258312353462,8.263884019717,-24.08880186004011,-2.737464361103185,27.07,1.28
5,-1.0719335528384968,-0.046487024688440015,11.126571751589735,0.6688009143493907,9.986977807561948,0.46472397637223406,27.02,0.99
0,-0.32214609657326154,2.4649553623662106,15.761267977481884,-7.837747833616439,35.21532487579334,0.532420757203352,27.07,1.66
1,4.675607975756544,-1.95133517531838,14.845553686865657,-3.506619145474428,19.489646946690122,-0.8198696199975049,27.12,0.81
9,-0.3288383457086238,-0.8554151009476129,7.173661099284958,-0.6505719372423207,19.868409127924433,0.4901888367918831,27.17,0.65
3,-1.8163106808705396,-2.0827479137299574,3.6686263667667522,7.963516259027026,-25.04531607559701,-3.247461333477318,27.07,1.28
4,6.446827904401954,-0.588932137379126,19.603246623556082,-0.5171991257647952,-19.178868751611816,-0.5636265077336948,27.12,1.9
0,1.6268969863089446,9.348683657538666,51.02907475051888,-7.534599167322733,33.8987215109086,0.20317541226587038,27.07,1.9894719183754115
1,4.218977506320477,-2.3359982557743804,15.381851871004576,-3.918035525731101,19.100980724781486,-0.2636693235138682,27.12,0.81
6,0.6616942426178165,-1.7930114541378255,11.320898387161222,-5.348354123292651,3.2866396882327615,0.9175227476639823,27.07,0.88
8,6.975504938404825,-2.2072549700342488,19.28143876584149,-0.06538732510669554,-0.023447407174137208,-2.9557667900346134,26.98,2.25
9,0.0,0.0,0.0,0.0,0.0,0.0,27.17,1.6887270836037915
0,0.08065091429839955,3.0870585413226155,16.081248722777847,-8.234485522311152,34.75803333703434,0.7919117093871552,27.07,1.66
9,-0.657213274274494,0.11057659309894907,7.493934074441995,-1.1634791149704746,18.654903617267443,1.0409728649658363,27.17,0.65
2,0.0,0.0,0.0,0.0,0.0,0.0,27.07,0.23351303515111643
3,-2.7699185615911093,-1.352643716156692,4.233656116269735,7.801743676153948,-24.043888001839207,-2.881429153461262,27.07,1.28
0,-0.4444963392483343,2.705554200446939,15.97537959628158,-8.256483613095169,34.999173865655344,0.5833851623766084,27.07,1.66
0,-0.9085594947403762,2.6021505760364736,15.366587893976826,-7.862773407669474,35.76599968092179,0.1244842260253184,27.07,1.66
9,-0.7198849865806083,-0.9873796001797661,7.177348248739423,-0.6616153634296027,20.1528132139414,0.7275689068604511,27.17,0.65
0,0.39183454452789956,2.8329129971950473,16.609696166947312,-7.196819539544157,35.89432896101778,-0.7497898576640111,27.07,1.66
0,4.236259788187336,8.282233665431155,74.30404086648251,-8.169329583747766,34.57948672305777,0.16090609057040817,27.07,2.3911813851895434
3,-1.64869012619168,-2.279469201043093,4.202583322125601,7.400005187578516,-23.639844244583784,-2.0225151168272504,27.07,1.28
9,-0.26789110172062647,-0.7745375085747592,6.9894418778146825,-0.9866669442046411,19.068421266529384,0.8729447581790658,27.17,0.65
4,6.150931776551068,-0.32463231698711836,19.173238753715307,-0.7126524568737049,-18.922418948838732,-1.2348851370410023,27.12,1.9
1,3.7637154294291983,-0.8830520176250201,14.260163952494901,-4.111059373533512,19.227088941898973,-0.8821235049369456,27.12,0.81
6,0.9700345016199948,-2.202481881972217,12.649994008217028,-5.277895356868865,4.411568232292954,0.932485649226231,27.07,0.88
4,6.0451319794486675,0.5417714935193765,19.92541183958267,-0.3494348768146201,-19.09201568787526,-0.4556542281066731,27.12,1.9
3,-1.3155444919397383,-1.580210557718186,4.191704530465006,8.359132983160096,-24.113739336178128,-2.844539133764111,27.07,1.28
6,1.034828754337649,-1.9743775192887876,11.552595343185432,39.099773513394226,56.19224792806364,36.78780921304252,27.07,2.434628562260722
5,-0.30370583334117823,-0.2748586331683267,10.820990158962475,0.35584949890092055,10.3253788100048,-1.5401738567323564,27.02,0.99
4,28.642439976697577,-1.5157991866898923,80.35195483463671,-1.2963691077042225,-19.045442798941114,-0.5534284917780525,27.12,4.335471672069809
2,3.3795479271649924,-0.10758520341109311,14.028935249206208,-1.7369130755805948,7.942930036929916,2.497773205371459,27.07,0.84
7,-3.3334411373846495,-1.2419629810549695,7.2187751648922,5.207132913458621,-9.975272322191497,-6.39993570566999,27.02,2.6
9,0.0,0.0,0.0,0.0,0.0,0.0,27.17,1.1401112441064525
8,6.619300606064257,-1.434963869477524,19.95193318930213,-0.4603394191139362,0.709263532738011,-2.5312123916710307,26.98,2.25
7,-3.0372036421333872,-1.7633011340979703,5.983788680145,4.637659172321191,-9.87685383551932,-6.873696567880882,27.02,2.6
1,5.215390726826743,-0.6150193709040188,14.011635385334474,-4.429764370774416,19.848587347276084,-1.4758342659513233,27.12,0.81
6,1.3082582063124886,-1.371892933851988,11.884986704615303,-5.628313089998959,3.69947527687873,0.5150626050104438,27.07,0.88
4,6.569193152145104,-1.2338017322136063,20.007486326383876,-1.029951054615719,-19.988728063589797,-0.7893302284549382,27.12,1.9
7,-13.823047360667434,-4.088513385363545,27.08937972826776,4.74346134232108,-9.24839567345761,-6.6030472764988914,27.02,2.5124950434702487
5,-0.37605841896430814,-0.43474572243317755,10.680986132006543,-0.8172358688967543,10.280078597815047,-1.308848130162944,27.02,0.99
2,4.838418957603023,0.7643959808640901,13.51392818784782,-1.6693196384379498,8.512627183103852,3.658877458786322,27.07,0.84
9,-0.7185351793990136,-1.1900446444073691,7.624098471065107,-1.4133429284902517,18.890171287964264,1.7297164765722468,27.17,0.65
7,-3.040758100710211,-1.7336222515507607,6.899293849820485,3.661843816610013,-11.15833192039283,-5.8071289532369645,27.02,2.6
9,-1.1756861944619599,-1.7506366667022664,7.443953148243028,-0.9545226965826191,19.788456356070967,1.8035107305520237,27.17,0.65
9,-0.5180470567442566,0.045848502614407094,6.964425381173739,-1.0099952947260589,19.20292333617787,0.8767213367448777,27.17,0.65
5,-0.34343207010741744,-0.8282567137444525,11.764455319872535,0.8290968300010562,10.934014601107267,-1.3181289761631185,27.02,0.99
8,6.511217129892,-0.5861615044094257,19.9879724890794,63.34733038509543,66.65029492098334,51.83216279108331,26.98,2.2831658356011832
5,-0.8979331953802018,-0.2852925112974454,11.70131361816209,1.0266753139920108,9.937456821089546,-0.022535731535483383,27.02,0.99
3,-2.071600676825426,-2.0280762763584526,3.812171532883212,7.350142299857348,-24.175506831261092,-2.7542929183507208,27.07,1.28
8,6.125319749879436,-0.31206750421805873,19.75163125963148,61.95943514089236,63.09158452059124,40.65755264114785,26.98,5.912366311831011
1,4.555878151192908,-1.3870493774324832,14.507109755057128,-3.7437404664842258,20.331045025925448,-0.7517713105581365,27.12,0.81
3,-1.6711546642225787,-1.5052977203403863,4.564434255205568,7.780332023207569,-24.35527217083618,-3.240561006312143,27.07,1.28
7,-2.729138226665626,-2.0609839138837303,6.6716145002460365,6.048650160004802,-9.818159023922645,-5.645031286315235,27.02,2.6
6,0.9998324851675775,-1.4336445500106803,11.37884234704177,-6.118164107012193,4.176279318126932,1.1751695189279276,27.07,0.88
5,-0.7321998583796895,1.2859067427494297,11.414298511285201,0.8536507308152482,10.683408446783044,-0.9511212596765414,27.02,0.99
5,0.09524650374150245,0.3106504471941702,10.402808017306238,0.6724980039954176,10.787467129067986,-0.35741677349652884,27.02,0.99
5,0.5358492850282975,0.009437570401589573,10.867679085643093,-0.05466695180269693,9.776490217518248,-0.40855768573270573,27.02,0.99
4,0.0,0.0,0.0,0.0,0.0,0.0,27.12,1.8731114279298875
0,-0.5820004965021832,2.9349923360030723,15.292593944515554,-7.48367194519045,34.25191439341491,-0.19175174544108176,27.07,1.66
7,-2.839651168027127,-1.355076373793743,5.845608216829312,4.0890060953570515,-9.731295304545814,-5.882121612485643,27.02,2.6
4,7.357937600629382,0.12893553423154402,18.727636852605492,-0.5157286701795893,-19.464807406584296,-0.7121083115867434,27.12,1.9
1,5.278656863568961,-1.1351767267986237,14.887988110584736,-4.050433701240589,19.225587312961427,-0.34608709399360593,27.12,0.81
6,1.8041635941136969,-2.7502993352706584,11.38163439781837,-5.502687276065763,3.2891998953031067,0.9541094744913462,27.07,0.88
7,-2.624694098129403,-0.8723402698178773,5.915996029572286,4.978536464376627,-9.121007314899222,-5.959049696527829,27.02,2.6
6,0.6793607613457777,-2.7152078444321823,11.984575472701193,-4.872917863534104,4.351873866005676,0.7834181370235574,27.07,0.88
9,-0.7762633325810168,-0.8154291031433577,6.829765531180632,-1.5945054128116554,19.087380215614914,0.37155056239074136,27.17,0.65
2,3.9859184033147903,0.3137731959397258,14.339170041110636,-1.5646619593525184,7.198451103648392,3.657026415104428,27.07,0.84
4,6.718050709946956,-0.6350021814290855,20.016516082873284,-1.1878108015242752,-18.744892142547492,-1.061028750733012,27.12,1.9
1,4.208167975233966,-0.9178285008060987,14.355609378092675,-4.423254369604944,19.726374714447708,-1.4229321591197106,27.12,0.81
2,4.850145609574474,0.3413421779697337,13.315756202970263,-1.8543626490584324,8.356395272324603,2.6696359421177007,27.07,0.84
0,-1.1541903935827498,2.839499279908682,17.061123789552447,-7.284693292025399,33.69320747471571,-0.011026967825697287,27.07,1.66
6,-0.10361097217789983,-2.914711743416126,11.739575002275455,-4.752181031270429,3.4771788063909534,0.6940057296857681,27.07,0.88
7,-3.016058023792668,-2.2086374716861608,6.652873673257514,3.9015926229667484,-10.054421415870292,-5.9346376289994645,27.02,2.6
7,-3.394903307086861,-1.4073240399750393,6.557801616047111,5.222090001505185,-10.155644876530088,-6.811524409138892,27.02,2.6
5,-1.5727425081434128,-0.06731377276425388,10.301805105594228,0.97969180979054,10.3437449833366,-0.0910260677571092,27.02,0.99
2,4.043496762961984,0.6646758780124581,14.11576409122842,-2.0919785648604075,8.067582064623583,3.71997957001999,27.07,0.84
7,-3.06314638684753,-0.9473978251127447,6.773271871756994,5.010881487350754,-10.029568795192166,-5.994697452167048,27.02,2.6
6,0.2675450731764536,-1.728876593773994,12.011667216321497,-5.059712249092214,3.596055780370478,0.920569485051935,27.07,0.88
8,7.20997695448132,-0.9847356395948222,19.309010791889687,-1.6446054560598125,-0.13387268705083513,-2.584603153198632,26.98,2.25
9,-1.5182025418116047,-0.7665922178384992,6.662132522344064,-1.5354045334033244,20.348228662612925,0.5898653484760346,27.17,0.65
2,3.606729768754307,0.09364275918800176,14.250117251084392,-2.07254699561701,7.7156729745557895,4.141129770615118,27.07,0.84
8,6.618473734271074,-1.1050394268613866,19.71400431390396,-1.0293972444758142,0.6956127567871071,-3.256781805247114,26.98,2.25
8,6.844837163645212,-0.8125550357912161,19.720506327451847,-0.613262744623035,0.19931374849946978,-2.5887378279701827,26.98,2.25
6,0.9161780839362823,-1.6768925855686359,11.551518380977958,-5.494504832852309,3.67041122300634,1.3104351593381753,27.07,0.88
3,-1.4385951784456323,-1.4355752050216566,3.552503720551289,7.105721525693868,-23.439121961648578,-2.8760842186381863,27.07,1.28
6,0.7289786928933237,-2.2433361414143898,11.06143111841232,-5.4994298297856385,4.006323697698705,0.5991638597605727,27.07,0.88
7,-2.752944710355953,-1.5819707947961272,5.816181271025631,4.770686833425843,-9.91960745863985,-6.841786183915229,27.02,2.6
7,-1.821013949175814,-0.9919204038112389,6.4674293826560625,5.233809776295793,-10.532884228798098,-6.1909579199792395,27.02,2.6
9,-0.7137220406332105,-0.38600316045432426,7.3700461820209195,-0.8102092787392068,20.330132900819088,1.2963489445011032,27.17,0.65
8,27.469883028991372,-4.7136661785708025,82.49494029889,-1.3252917133006625,-0.03748152778114017,-1.7019808763605948,26.98,5.279831111647688
2,4.086818978079924,-0.7288121199355475,14.49844639214591,-1.0562912837951945,7.778110003615714,3.270459138521387,27.07,0.84
2,3.304660747963934,0.5644787790084638,13.910007477521157,-2.0624395299085823,8.105573696038984,2.5669272941828076,27.07,0.84
4,7.262686693905693,0.2300575760135756,19.844319975606005,-0.239433410570688,-19.7913280182381,-1.4506063375337241,27.12,1.9
6,1.1810269762560024,-2.9551232673848524,12.76994348076922,-5.034064184817787,3.9647958739117946,0.33339156341422727,27.07,0.88
9,-0.6625862390761499,-1.847702788360962,7.7709977007092,-0.5608213378948046,19.491608920908167,1.406314866914194,27.17,0.65
1,5.051234548646557,-1.2292629814289746,15.891446911439404,-4.015437989711453,18.71426070670419,-0.5439862573312197,27.12,0.81
7,-3.5699874607129147,-1.3846793753336362,6.009485464972146,4.705092890221974,-10.338635663989683,-6.502727315317529,27.02,2.6
6,1.040044520878937,-1.937014719461636,11.512639943076755,-5.250706196386804,3.6522237950487804,0.7274553748525747,27.07,0.88
1,4.3201310105644675,-1.4554587804474528,14.85494005648452,-4.0808335749828295,19.57538925387024,-1.2712946667764702,27.12,0.81
0,-0.3899011716864701,2.5147037581738925,15.856374681976751,-8.134444765023149,34.927944733556174,0.6500179937725101,27.07,1.66
5,-0.22560317362836163,-0.5867616478831751,11.258167474470373,-0.3916499210485664,10.739785815463927,-0.5605660943554831,27.02,0.99
0,-1.4200922421505442,3.251684319377496,16.637228120417678,-7.601771663804433,35.561030285098184,-0.08517186143400685,27.07,1.66
8,6.454274954183276,-0.23555751508830702,19.179657873092975,-0.6875891895546058,0.7453954795333112,-3.621354430655925,26.98,2.25
4,6.690636681712786,-0.0857212599283527,19.84480378524587,-1.2100965260752434,-19.460123942067256,-0.4356540563326843,27.12,1.9
5,-0.391335006068559,0.7146086425870876,11.685932021915146,59.12431566417526,115.69552243942675,59.47792452830625,27.02,2.1099805209540676
9,-0.8557092143742504,-1.059744455696878,7.478669094649467,-1.4731075122102306,19.696703422706133,1.0797254110288637,27.17,0.65
4,6.518775360287481,-0.3216583721953309,19.40257905982751,-1.70759168235106,-19.25956193791351,-0.08838323576894869,27.12,1.9
0,0.47704804200886974,1.5092762486980043,15.910308635934774,-7.983181101755234,35.24457194395591,0.5302299670882786,27.07,1.66
5,-1.1321642732916444,0.09306196913316454,10.392709602840933,0.2974817552985278,10.118935610613123,-0.6545179773195039,27.02,0.99
5,-0.36021303470339605,-0.053675553490317746,11.809296131758073,0.052612842182273634,10.634748766711132,-1.0775440683886788,27.02,0.99
2,4.276670070787014,-0.8249694537890903,14.09057043464156,-3.3350472501310158,7.58151303354876,3.6653382439658717,27.07,0.84
6,1.5876713061796148,-2.6685583344752812,12.037429980323417,-5.867784834603587,4.090713283682083,0.6362176483282346,27.07,0.88
5,-0.5516659838198532,-0.2747217249658723,11.638890855831447,0.9097809869729998,11.516263813929163,-1.014534066894367,27.02,0.99
7,-3.386723278450454,-1.7905136247538225,6.427131090966581,4.693531855009694,-10.063261278955352,-5.947991258437535,27.02,2.6
1,4.398072923883204,-1.6602062199436471,15.682381586254632,-3.776009553105093,19.72557051226709,-0.41351892964150533,27.12,0.81
8,6.553969197192335,0.18181987205072614,19.576404639134996,-1.6044064366923263,0.4617137419952225,-3.1467648923788754,26.98,2.25
5,-0.7578979652593066,-1.1088080948757526,11.07803372638496,0.604619835790983,10.270329292316353,-1.3194052378798982,27.02,0.99
1,3.8903054523325578,-1.177526346926444,15.152340626579099,-3.998264186859893,20.070767310434277,-0.14820303591306305,27.12,0.81
0,-0.702158018121301,2.9259320272013145,15.443914869010273,-7.5319608541509595,35.36009841960188,-1.3073478935342713,27.07,1.66
0,-0.8360007946942715,2.657676605759754,16.11772340361006,-7.309720025315955,34.99865920491926,0.8299551394064882,27.07,1.66
1,4.813752925759029,-0.3410194579388611,14.354022782600621,-3.9352258838602117,19.335551548475806,-0.8234380970358655,27.12,0.81
7,-2.043302808212434,-0.9021264007960531,7.106568753367268,5.124393764601985,-8.77568318105506,-5.980557010202585,27.02,2.6
4,6.679553004985578,-0.9722387242154964,18.86717504876998,-0.08330588156713759,-18.81079700075549,-0.2527330653385145,27.12,1.9
6,0.8882947806879864,-1.424830583237945,11.896573707748258,-5.569052453405955,3.7248970709383786,0.4215504493883589,27.07,0.88
5,-1.0405236768586905,0.9252287109115335,10.791307549150316,-0.0005870054679017467,10.951275917840958,-1.6355627008835567,27.02,0.99
1,5.4583818139496065,-0.5527771760885716,14.73394481006938,-4.226406042303022,19.568248051583303,-0.5499102318302259,27.12,0.81
5,-0.736928817567597,0.05721839786687649,11.371527095488242,-0.23872761992911135,9.42604495555417,-0.21373465627140031,27.02,0.99
2,4.340235799771906,-0.989465052756587,13.83805858902808,-1.5804370163952028,7.6441214475317985,2.6876747057902293,27.07,0.84
7,-2.8423519757697306,-1.499452075194908,6.301278913110128,5.108552399108281,-9.72076027033057,-6.415872994580452,27.02,2.6
7,-3.259838772601205,-0.9394870977159686,6.922053478156137,68.16849349839622,6.773779243733687,68.98468872823537,27.02,5.220874729414176
4,7.231674208951786,0.42924769546520364,20.51395157550834,-0.10773436994874341,-18.946653893924765,-0.5889208248238776,27.12,1.9
6,0.534102898809754,-2.695911079518928,11.949812741015752,-5.675668380738144,4.562732096257016,1.244099098856499,27.07,0.88
7,-2.496158173884023,-0.6498663844496727,5.8800157009932414,64.00446970104502,56.96563403258933,48.040941687198526,27.02,0.9722045487349887
1,5.14994009690249,-1.9200001474087691,15.1963248822275,-4.121051275270062,19.05939744821728,0.3456117204868647,27.12,0.81
3,-1.038926205655975,-0.6921299275165615,4.321837808346403,7.009897882365549,-23.650300094307276,-2.3827823221242452,27.07,1.28
8,7.777618917692027,-1.511941347307162,19.0334308673785,-0.7766498437044304,0.35440165302728344,-3.1312165663188756,26.98,2.25
6,1.1477014404701447,-2.276475641755713,11.601647314760465,-5.670596218775834,4.531511044805162,0.6328851816725346,27.07,0.88
9,0.0,0.0,0.0,0.0,0.0,0.0,27.17,1.1869577093864034
3,-1.534804420345308,-1.4058913707356848,4.241837157246361,8.464531520403376,-24.47694635070046,-2.673332160485621,27.07,1.28
1,21.38991705678902,-3.2680995555834125,71.7769630066368,-3.1603497622971197,20.003641331393993,-0.0804781629763695,27.12,0.1571438934908323
7,-2.7264024532367683,-1.647153668838367,5.686014338093668,4.851815403150867,-9.272506689055058,-6.404074857025967,27.02,2.6
2,4.563045526401277,-0.34609150946783124,14.325148294444727,-1.9006615803658415,8.464414835611182,2.6320959410035445,27.07,0.84
5,-0.3358063418285127,-0.12070619913127653,11.005448228250433,0.26540891471806316,10.511489118417702,-1.224814409831765,27.02,0.99
7,-2.9720736958087746,-1.133805141187056,6.839332547095008,4.353019815086185,-10.218978999066744,-6.125129204232245,27.02,2.6
5,-0.6003373885909997,-0.994399459209781,11.018521140260862,0.09912667777137324,10.373612037765561,-1.0452216038473825,27.02,0.99
0,-0.5878232910606903,0.8543727668572281,15.243993561042025,-7.503241569809276,34.72521477921537,0.2661618759706098,27.07,1.66
7,-2.7769118607021204,-0.6694796499765652,5.718785666377982,3.835578581301942,-8.905199310980976,-6.15512081676952,27.02,2.6
2,4.337846844118726,0.06539253871059576,14.611939246732332,-1.4822863242751898,8.289088888718146,3.162620938629456,27.07,0.84
0,-0.6763664388206483,1.7869213327777185,15.60523091731179,-7.945171420675264,35.274861099428655,0.4058387389666095,27.07,1.66
8,5.8918605730713445,-0.8543544430855073,18.54435958665866,78.84309919125482,45.63874045635646,18.44974597923712,26.98,1.580528638919831
8,7.146491872189953,-1.2145707560480012,19.220545001944092,-0.5862620866699706,-0.447312368927944,-2.412628384747589,26.98,2.25
5,0.23165351677026524,0.1405534898065134,10.879819089135145,-0.6673698815655142,10.43998057832927,-0.6469766296187182,27.02,0.99
9,-0.38083792029433117,-1.2755983395467587,7.4473802123832105,-1.102392418340489,19.312014570112336,0.7211512741807511,27.17,0.65
2,2.9726917393052257,0.5225836867026727,13.719883608654229,-2.0120140834916946,7.883455111205776,3.076096670425316,27.07,0.84
9,-0.30726633383370217,-1.237065838925735,6.892124714893839,-0.8239950369821301,20.28304518633851,1.4850818016583023,27.17,0.65
0,-1.6590802682244372,2.5262464745541733,15.852909354323188,-7.731723171919829,35.45387812861716,-0.34225843377675136,27.07,1.66
3,-1.5350191485811335,-1.3655633868013748,5.041435983759502,7.284068031772524,-25.042191698883165,-2.6267382953922858,27.07,1.28
5,0.0,0.0,0.0,0.0,0.0,0.0,27.02,2.7889429431803174
4,7.173863576724135,-0.5238492974984167,19.152829839676524,0.6601433529739916,-20.124365836289023,-0.8800251585292014,27.12,1.9
4,7.278963406847825,-0.011450201130712262,19.721569363697615,0.1687118336760599,-19.3998483053802,-1.204940340155775,27.12,1.9
1,4.060205237345151,-1.2716845081121764,14.789431337874754,-3.684679911559914,19.03706472726873,-0.7498309468658726,27.12,0.81
5,-0.8046431973659919,1.0426242381333952,10.072804893887689,0.9733360118558592,11.047693788332221,-0.3014640305082785,27.02,0.99
6,1.2337007333063235,-1.9199826764242502,12.551313939058023,-5.458872543009674,4.39484083325323,0.991870732786007,27.07,0.88
6,1.2189226537351685,-2.3367485352146833,12.126624931625193,56.8219396184834,86.98242139144133,38.45841897368683,27.07,0.7959812997763669
4,5.715852031136379,0.1539637799586467,19.40944803610726,-0.8057162090390932,-20.12810465618045,-1.5083799260599444,27.12,1.9
7,-2.7519166206018997,-1.2411955853752203,7.351586231006525,4.341504684100905,-10.773721411201489,-5.802565629188901,27.02,2.6
2,3.886600961797321,0.8050357696006137,14.727678565610107,-1.6222439274501317,7.599836573895708,2.837356559605464,27.07,0.84
1,16.366978492902316,0.8944623628259054,56.694562605582966,-2.497719782315128,19.936178072635677,-0.2139152574250337,27.12,2.3814494073465364
2,3.2170590592346744,-0.13525544438656806,14.305833511124147,-2.8009438579606476,8.391676679783343,3.992132101448606,27.07,0.84
8,7.571296220212014,-1.02424961508694,19.698231808354127,-1.838552330412949,-0.07129243199679577,-2.6325179878190066,26.98,2.25
2,4.3173875665985575,-0.7931002974478129,14.965308966294538,-1.54682182743415,7.441598030423683,3.2077431927613786,27.07,0.84
8,27.986188339473497,-1.3963364658286146,82.69753574952176,-1.0191271733508984,0.6476271759371107,-3.2846072669719906,26.98,5.419992284480738
1,4.092952007176683,-1.1316906462059515,13.94531050258423,-3.2849146946847796,19.519249527021373,-1.082914624806782,27.12,0.81
5,-0.3608787602520388,-0.018781381716522827,11.354156438317961,0.634754711983584,10.492976037999636,-1.392801759602623,27.02,0.99
1,4.6980641361878686,-1.3299868913823767,13.416216891267858,-4.494776909104082,18.86922904594384,-0.5230092743572351,27.12,0.81
8,6.920926786562673,-0.9366015060483049,19.23189745790164,-0.7265013959429829,-0.37479373449572473,-2.7013592181680814,26.98,2.25
6,1.4922693231693227,-1.8007477897892743,12.150038348522832,-5.5000324328789505,4.79430749078155,1.0659885021501063,27.07,0.88
2,4.266553236217665,0.5180623571758887,13.97617227137365,-1.7526349308271705,7.7608585116035345,3.656470300607998,27.07,0.84
0,-1.0397891575007308,1.6423632087238835,15.83639031475384,-7.004631286026439,36.4246162609272,0.9500613212944815,27.07,1.66
4,6.823352884761065,-0.23533115687774714,19.822387656029168,-0.99926045784806,-18.940110423105626,-1.292520204039145,27.12,1.9
2,3.5023182428679007,0.2262238761267622,14.037192353356911,-1.1527165327092272,7.6235000323052375,3.2349959656817724,27.07,0.84
9,-0.7086005999618744,0.08865540643484304,6.475863510504743,-0.6303908619180578,20.322485403742448,0.5331441652839866,27.17,0.65
8,7.295320895580555,-0.4598231667081629,19.206219974879833,-1.3992581734283964,-0.11522424316739757,-2.9314560346702487,26.98,2.25
1,4.387454905294595,-1.0920919350555782,15.219167631044108,-3.353771399062771,19.93094916549628,-0.902496691662155,27.12,0.81
0,-0.5746579392830321,1.7321917153634887,15.941628518271756,-7.376264786092087,35.053706300307276,-0.028589299972043014,27.07,1.66
6,1.0805949114922158,-1.479772819951785,12.407077477237188,47.780459452863596,44.70751838311816,119.18875740974502,27.07,2.167033464021861
7,-3.0638971287936116,-1.3601382451173551,6.7663846670020735,4.554242120357277,-9.329290176758992,-5.677717547273652,27.02,2.6
0,0.18653801908506384,2.320648192116934,16.282071815245775,-7.870304222625941,34.75305184641288,0.04259925998862671,27.07,1.66
8,6.865889544674439,-0.7835147423327063,19.544818304265448,-1.2131771359496468,-0.4512728825899943,-2.886528205878534,26.98,2.25
7,-2.3430631619495914,-1.224124098221206,6.60550292671253,3.9565455554996674,-9.806795920443419,-6.871032992884177,27.02,2.6
5,-0.4809400023881923,-0.09143740801696265,11.979930353560412,0.6794957423704067,10.179037111398184,-1.7712082788685595,27.02,0.99
5,-1.0877842812575813,0.8633247613380111,10.102759873121846,0.747279995709016,11.087172371630148,-0.06846188018433907,27.02,0.99
2,3.8614822423126323,-0.7766688094555333,13.554429995786439,-2.5959724782900224,7.521026684683877,2.8959507993334803,27.07,0.84
2,3.2100532540461026,-0.6766122861700837,14.802650593476086,-2.3208381040198987,8.24664781888495,4.14830593524788,27.07,0.84
2,3.620254258816329,-0.017305303466679203,12.906174163681287,-0.7430157344420321,7.284869048133389,2.628354633514647,27.07,0.84
2,4.303056543433067,-0.07743575264431819,14.707633878141806,-1.6781629838660392,7.941539495107628,4.465308708989869,27.07,0.84
5,-0.7172634847496234,1.1516208063596385,11.096086881930303,0.38061754708026496,10.745260377311517,-0.7344899515408169,27.02,0.99
0,-0.7859748451645929,1.9881003270659823,16.05969913165636,-6.997906723765228,35.288451580916906,-0.2053535513873765,27.07,1.66
1,3.782115222263413,-1.049420833954883,15.206650542261952,-3.37147160229671,18.95247170544602,-0.6051251266209168,27.12,0.81
9,-0.735369856316445,-0.8953826988496016,7.083042677214678,-1.1870004680462107,18.813374144308835,0.9363832756139694,27.17,0.65
4,19.600090342477504,-0.9778816541282037,66.9424192896333,-0.27592716142872675,-19.275910859167272,-0.5234918378182984,27.12,0.5850317769824533
4,7.531482184114129,0.4953970874894065,19.596579777185603,62.10079846240028,55.1645686718037,77.54187036576228,27.12,2.986697221472739
1,4.578677305864523,-0.8452097031117517,13.799002226882257,-3.35660289576366,19.049408071053694,-0.06049701002565305,27.12,0.81
7,-2.5711934536743213,-1.0335338773376896,6.4801916308552245,4.502201139923859,-9.501923857655258,-6.587901862922887,27.02,2.6
1,4.684204559883347,-0.44677877525563336,15.578297294861251,-3.2756491211663548,17.966512129305265,-0.33134118576253124,27.12,0.81
1,4.3542070483254385,-0.3464036050450374,14.922326164728318,-4.128197022047458,18.768144074000883,-1.2158325067927316,27.12,0.81
1,4.1933582223513355,-2.1972665046702913,15.064741733841846,-4.268675235422415,20.206504272119336,-0.744412401110297,27.12,0.81
7,-2.731432755865572,-1.5330194114210929,6.272798754574957,5.275100006708919,-9.551920734571475,-6.145654773627252,27.02,2.6
2,3.8321208485740286,-0.437132973078378,14.051297890982285,-1.303258407895322,7.473468544291412,3.510377191596368,27.07,0.84
7,-3.7162687822123495,-1.157314148194117,6.249598174823612,4.480770683453755,-9.190583904651772,-5.97722435312548,27.02,2.6
4,0.0,0.0,0.0,0.0,0.0,0.0,27.12,2.687436699637353
6,1.0792633090539727,-3.356991401384373,11.638844904531418,-4.469353863158846,3.362157485031685,0.7794701091867206,27.07,0.88
2,3.974914110638637,-0.7209786463562103,14.349303924958276,-2.1811301258500952,7.646388613225112,3.2316662389770556,27.07,0.84
8,7.771640059667668,-0.7295535371905146,19.320154964495973,-1.4472619866077372,1.172748846343131,-2.4637349587218367,26.98,2.25
5,-0.8910471110423799,-0.004931360076860208,12.02520439549202,-0.025326415609778774,10.44254772324216,-0.7111174714209625,27.02,0.99
4,6.6326494512978025,-0.6614544793824328,20.230579822484263,-0.5096878929560611,-19.220591140086384,-0.9370787101094143,27.12,1.9
3,-1.6673084878416364,-1.8831970713655333,4.317000017524473,6.915763972221036,-24.93056756720751,-3.6766476277004183,27.07,1.28
0,0.05583094310960135,1.966852454699327,16.203878367579936,-7.055889969151885,33.97678150906356,-0.35290629789646555,27.07,1.66
5,-0.09089402490097298,0.6380957029644854,12.043406683184704,1.0343976492125295,10.296116378598228,-0.6734704487972243,27.02,0.99
7,-2.4606678583364596,-1.9273253941765809,6.4620691837193345,4.3569522983243925,-8.878486472943935,-5.477209768365564,27.02,2.6
8,7.263483860162462,-0.82106879144482,19.735889917207547,-0.6931277751556013,-0.07892865027068532,-1.9731699720832876,26.98,2.25
5,-1.0484490015908823,-0.00791005618545991,11.360794317672324,0.5306778043291946,10.734599390739147,-0.8058710731920283,27.02,0.99
3,-0.9637988013346436,-1.5086020085937566,4.277674590749599,9.280325548442033,-23.854209344920523,-3.7352286439862072,27.07,1.28
8,7.503601505239339,-0.310090811412259,18.832601951026035,-1.2749517411599658,-0.402302801125633,-2.8134964109609824,26.98,2.25
6,1.546738706195836,-2.200650448517576,12.225929916911738,-4.512648030421311,3.8497331859611776,0.20076718016602768,27.07,0.88
4,5.850102213993443,-0.17421615780209226,19.28295230343816,51.13272020020613,39.910149477912775,53.65882316267844,27.12,1.0241709130379117
5,-0.6359921415882798,-0.15792846522185264,10.896840819637248,1.0410034915979114,10.997342803955817,-0.4906179971107127,27.02,0.99
3,-1.240156816499078,-1.3888283878419942,3.8690725188760444,7.492555851004491,-24.792945731451614,-3.3657201647106874,27.07,1.28
5,-0.49049571549521487,0.27478461827928946,10.735024951656204,-0.1978200896110181,11.507184062025363,-1.1964715017047656,27.02,0.99
9,-1.1208045742893855,-0.7400663939740395,6.584043190126817,-0.9209182872847917,19.625568505269438,0.9944552099370402,27.17,0.65
3,-0.6239947186320729,-1.9630990028766786,3.865746129099726,7.29004192851843,-24.374589943686516,-2.718213562165565,27.07,1.28
8,6.8830682159680565,-0.42964483182197316,19.868801530241853,-0.7499964421052098,0.10695376345215779,-3.262919210374702,26.98,2.25
2,3.9639777177705207,0.15540174926855937,14.091477366693425,-2.462412173196195,8.844825193716462,3.863616639048424,27.07,0.84
8,6.792095103717064,-0.6146924579590958,20.123097132039153,-0.9977729102896289,-0.1892202549126267,-3.5159699120583383,26.98,2.25
5,-0.5961903971129818,0.5695108269193985,12.251437913900785,1.0878540064733044,10.892770810041092,-0.4823057867063271,27.02,0.99
9,-0.055473573935875486,-0.6768803316942638,7.03884839383695,-1.686422892401136,19.766282778543136,1.6473824311818017,27.17,0.65
9,-1.047245186038424,-1.3466881021844794,8.205820465134877,-0.8953279337525153,19.379449988239074,0.2510018891057576,27.17,0.65
4,6.049209481181949,-0.021449204931614826,19.416518122624613,-0.4820418827764682,-19.693096858569632,-0.7135786416910814,27.12,1.9
4,6.002515359440026,-0.7559709151031332,18.921691919272646,-1.4427030371427074,-19.380491172616708,-0.72795700826518,27.12,1.9
5,-0.5954678203540942,-0.47358980257902517,11.101281625030113,0.14397843896536594,11.016201796627241,-0.9651118419538196,27.02,0.99
5,-0.18819526198042857,0.13253043035048676,9.994359852298071,0.7162318023342263,10.470657750846108,-0.07566499434025942,27.02,0.99
8,6.823879718055401,-0.4553260554691225,20.22509240037142,-0.8038572147088603,-0.7985385768711584,-2.8400634430213425,26.98,2.25
9,-1.366521182368577,-1.0269808728063778,7.568625730948411,-1.2861204011943241,20.03848824685332,0.683505934434244,27.17,0.65
6,0.24147536410993553,-2.0993505697035366,12.53441721117461,18.78997173810091,64.32436606252547,46.110052219886605,27.07,1.0739438556071164
7,-2.829033661923159,-1.2975902285314984,5.879094135456908,4.493691974240158,-9.146023895638157,-6.333249978064764,27.02,2.6
8,7.279882796960765,-1.7827628871260741,19.05477056556187,-1.0458221213084415,0.18022156049610394,-1.9566438736668585,26.98,2.25
9,-1.853134981955252,-1.739041406796157,7.5737108571168585,-1.8177255456938475,19.657558902762023,0.9331483500112654,27.17,0.65
7,-3.8175920407116783,-1.2401990051228489,6.94819810010409,5.555324236652618,-9.798359201154128,-5.706470027021299,27.02,2.6
9,-1.0073446413302725,-2.425967114353891,6.781874678101188,-0.6518529307015484,18.913039827123214,1.1240636508297033,27.17,0.65
5,-0.5809031427297239,-0.890059299351311,10.857263410422041,0.8359912878739397,11.161518949955822,-1.0988880667470096,27.02,0.99
8,7.109768084654743,-0.30804243154246913,19.415968719848085,-0.17775357482332765,0.7336209144224405,-2.6824095130678662,26.98,2.25
5,0.1558089145732532,0.4446104639894899,10.491948855455506,0.46036264186289605,10.629089170879343,-0.3904869327605654,27.02,0.99
3,-1.4218287122939721,-1.5896508255145887,3.433015997254402,7.319575727633903,-23.517059430971496,-2.4215753634015478,27.07,1.28
7,0.0,0.0,0.0,0.0,0.0,0.0,27.02,4.149717055799089
6,0.12756591382910665,-1.5362188579137532,12.723695123088033,-5.095311263307945,3.2490234830700597,1.1590048495283085,27.07,0.88
6,0.3212245299616253,-2.2540735362886144,11.311586382966597,-4.3953941331167545,3.6828186173553745,1.3945232156297742,27.07,0.88
7,-2.502652721067375,-0.9048239137015512,6.231209309481004,3.5399948462810444,-10.475076834840742,-5.76753874125589,27.02,2.6
4,6.833762745111566,0.18604098871741087,20.783117649817587,-0.39350826449149934,-18.887503007670578,-1.5385392289338826,27.12,1.9
3,-2.1738792989227536,-2.9055124002157493,4.022690910195553,7.852957718308416,-23.799683802114718,-3.475853087942548,27.07,1.28
7,-2.7628173032403076,-1.0335332549936231,6.800018800211668,5.703228119815861,-10.009508236591827,-6.242488723408232,27.02,2.6
0,-0.4271328486692911,3.3259722329457264,15.455891413075191,-6.607424479108055,36.349570180578674,0.32136043947355863,27.07,1.66
1,4.856748980784858,-2.069486873293996,15.233096109516863,-3.464300196969754,19.072880238277026,-0.3173029643559342,27.12,0.81
7,-2.65340908140974,-1.7176948248433923,5.50681081906048,4.6358401940679315,-9.209960037645043,-6.063223193260611,27.02,2.6
0,0.038628115856759404,2.3377393329295684,15.55412740730148,-7.6903734194857805,35.249066907319666,0.4357477679688168,27.07,1.66
1,3.7482891569480747,-0.9075594054547005,14.56420061781971,-3.5715144652238124,19.31601377527752,-0.8065657249738936,27.12,0.81
1,3.7835239173948083,-0.6770584545594582,14.752909211833318,-4.2814539935451545,19.72944373516888,-0.6463458261325947,27.12,0.81
4,6.8171385787828545,-1.2598127958190075,19.148278301566993,-1.0763396391631206,-19.498771181989156,-0.8396662604346676,27.12,1.9
0,-0.10572639305261733,2.3863979367608197,17.20973527707011,-9.084740215310681,35.52025412820054,-0.11934700808311094,27.07,1.66
0,-1.0636899540304827,2.398408936734948,16.216405121174827,-7.6756064593653734,34.06959263155013,0.2062891484845324,27.07,1.66
3,-2.061798497227996,-2.0473926801860403,3.844242099623164,7.611270317643196,-24.21739310406493,-2.375116750873899,27.07,1.28
3,0.0,0.0,0.0,0.0,0.0,0.0,27.07,2.343200341168375
1,4.524915903759481,-0.4453271770968833,15.158367214244397,-3.789046251461371,18.999997856339533,-1.0812084487101412,27.12,0.81
7,-2.538109685762566,-1.1450495385984494,6.656160515630393,4.790373375051884,-9.7199183844795,-6.969147215500091,27.02,2.6
3,-1.053338826991241,-1.665365288232141,4.1302274585591,7.874369270502408,-23.78010382030376,-2.7376508215279465,27.07,1.28
9,-0.3801294990812279,-1.8479010076091462,6.235385883729095,-0.8530001232281574,19.213058246401182,0.9264626917131451,27.17,0.65
1,4.732674159774557,-1.2858172478780892,14.750918878874364,-4.251611108775352,18.438959096247295,-0.31588045812353815,27.12,0.81
9,-1.4070021193921294,-1.2883052022343942,7.096822135460992,-1.2299397835169912,18.652682914098513,1.2300941456690762,27.17,0.65
3,-1.4025964787286544,-2.2674765614157413,3.4404947169703393,7.432172874030558,-24.778624162039936,-2.4000226785151955,27.07,1.28
7,-2.9712505337907795,-0.6933007250445749,6.182996783155559,4.01323915409617,-10.004108710630504,-6.1022761533506475,27.02,2.6
6,1.356093833943023,-2.748347446131256,12.134228099890285,-4.975899126293107,3.908052526878587,1.2072970028073517,27.07,0.88
1,5.007318453506061,-0.8512903326426124,14.730475812602894,-2.666310723755787,18.57227536354551,-1.3515864946584188,27.12,0.81
4,7.158300429603038,-0.31921384976192774,19.603347270641137,-0.5034315605389249,-20.27496452489217,-1.3120203176740497,27.12,1.9
4,6.372763385948013,0.00018129139020754345,19.84074142272248,-0.340544197557196,-18.760596168533425,-1.331011518710838,27.12,1.9
4,6.77566630423153,0.4732412749711407,19.99481607171698,-0.30954697502108897,-19.72779698845545,-0.8381857621102654,27.12,1.9
3,-2.716776750505608,-1.411415843371894,4.283483376871072,7.743786658902984,-23.43178388231935,-2.2814099272933075,27.07,1.28
8,0.0,0.0,0.0,0.0,0.0,0.0,26.98,2.0033321224107845
4,6.513134072654101,-1.0548582083538818,20.28971259042754,-0.9997260135667412,-18.93653081700839,-0.8011759527801484,27.12,1.9
2,4.206124472570281,-0.4431090234518708,13.269532171132704,-1.7932214270438265,7.824186252859383,2.877146298978577,27.07,0.84
9,-0.8551757619078494,-1.0893582078636372,7.2946769219075955,-1.6390184395632073,19.98617577094515,1.2495755883177808,27.17,0.65
9,-1.3662442911955315,-2.356350400775609,7.826442957088473,-1.5251599942548446,20.14609391128837,0.694827547781259,27.17,0.65
0,-0.35983803840570183,2.5117152696014804,16.4040644698888,-7.560317003618577,33.83862350136788,-0.3407271201655766,27.07,1.66
8,0.0,0.0,0.0,0.0,0.0,0.0,26.98,2.905543947393279
0,-0.7095367670789094,2.6803602169974745,16.024808948416105,-8.101965093678924,34.44717961308951,0.061977218937153716,27.07,1.66
8,6.573168498653552,-0.959406062433586,19.257788607490117,-1.1799720611990399,0.16339392610780665,-2.9912139018023547,26.98,2.25
1,5.256562343707362,-0.274136455413474,14.515399487249,-3.451451669236549,19.212130808735974,-1.1264864522249671,27.12,0.81
5,-1.389806475948875,-0.579587847956748,11.321773680934987,0.660728747256445,10.40005649947497,-1.2222892646088086,27.02,0.99
2,3.572924479845736,0.6349154408351996,14.938667466720561,-1.7171865188236102,7.2306210292212585,2.9948891395798567,27.07,0.84
6,1.5240645352093547,-2.1470292531370916,12.407130601983622,-4.570694370219468,4.815504418218731,0.9921889584732695,27.07,0.88
9,-1.1667346187555696,-1.3897666350365707,8.010512717580376,-1.4305422370286105,18.19389826326068,0.7081468911825987,27.17,0.65
4,6.650544478467616,-0.13271485036720773,19.79747501007978,-0.8915379443488392,-20.142923610823743,-0.5736873646682608,27.12,1.9
6,0.551658457192643,-1.4188002220094194,11.878295505895412,-6.080981991296353,3.5920675875013606,0.9842099320969587,27.07,0.88
8,5.686244480392173,-0.3410152086241387,19.809186787647853,-0.6697036744160505,0.4071650624241645,-3.092017040980412,26.98,2.25
4,6.918312043122724,0.5777726600573986,19.888896241600097,-1.4485008258168703,-18.84026613305214,-1.8032929152417094,27.12,1.9
8,7.441068473284603,-1.3139114417899618,19.659495073572785,-0.8034387280060244,-0.38706494536337843,-3.4815477520778675,26.98,2.25
6,0.8765206299604635,-2.1143328609986094,11.906953444112029,-5.528339883662143,4.548125078175584,1.104194590844101,27.07,0.88
1,0.0,0.0,0.0,0.0,0.0,0.0,27.12,2.3719403682324836
6,0.6698762772551248,-2.2664556968550724,11.798690323795517,-5.25319445409905,3.777043113042154,0.23257188257967076,27.07,0.88
4,6.424986793480094,-0.04417582768033521,19.816317931316533,-0.5683334778849867,-18.527087262350808,-1.0683533750082228,27.12,1.9
9,-0.8121625022677202,-1.459745951731965,6.631035804851753,-0.773460625882538,19.782066565541562,1.054482355413013,27.17,0.65
9,-0.43935366524599506,-1.4359158880490646,7.301326764841326,0.7570442068290888,19.11810694150523,0.43419793147576735,27.17,0.65
8,7.142884502240651,-0.8711394504537041,19.436926837939946,-0.7843023465620271,-0.3036450685801345,-2.2076444060628537,26.98,2.25
7,-3.768036807845436,-2.1195340740563533,6.9690280825552495,5.984450468232234,-9.91496042053065,-6.157886983025167,27.02,2.6
3,-1.219474656508281,-2.3676894617181183,4.305590620908553,8.226808226661284,-23.991578499751174,-2.4469877467491603,27.07,1.28
2,3.2798799580917084,-0.1374701141406644,13.771361314015008,-1.8176015247219257,7.759628639206228,3.7946673026771736,27.07,0.84
5,-1.4995363738042977,0.397639782085042,10.674127376677344,0.8684539140713905,11.270835666571319,-0.6082716313102183,27.02,0.99
0,-1.3267216062543516,2.668308884215109,16.879938141285805,-8.285544164180326,35.02865530460305,0.293098310572457,27.07,1.66
9,-1.7501894205147002,-0.867768243797808,6.681760212680107,-0.9038344919736618,19.483311441399152,1.0965772081881515,27.17,0.65
6,0.0,0.0,0.0,0.0,0.0,0.0,27.07,0.9781221132393719
5,0.05056614421815231,0.33488203111381526,10.985858562059128,-0.3025407548946872,11.711124040292297,-1.598723532459715,27.02,0.99
0,-0.6261176447601551,3.014435130903621,16.16213968682697,-6.585422807581726,35.863149591897965,0.9992700040896271,27.07,1.66
5,-0.4539573599929255,-0.21204689691813264,11.022183309461669,1.4904033600825,10.634310749793272,-1.1179685781617696,27.02,0.99
7,-2.7856295391474992,-1.3145056878322996,6.676806998836694,4.367881836274113,-10.53714425429023,-6.174798265422888,27.02,2.6
1,4.064814651747882,-1.7798176590267714,15.216680290961552,-3.4107129773997475,19.716964110751483,-0.0667727008991067,27.12,0.81
5,-1.3543661226862491,0.08497072315706664,10.283565274813018,0.7493468789775131,9.57945517042465,0.034591544188536716,27.02,0.99
7,-3.0147023903464927,-1.158480034749667,5.937461887530021,4.571966453963419,-9.91308759489742,-7.099681374408311,27.02,2.6
2,4.569461798485987,1.1541925767499828,14.80155321807542,-1.4781477892193835,7.382314704371234,4.468906243600287,27.07,0.84
8,7.540726180428851,-1.0648099855745827,19.55011921773943,-1.0799310093280712,0.6188905343349316,-2.9244253250616903,26.98,2.25
0,-0.47896788476445284,2.574635439152955,16.110655510770133,-7.44328649555145,34.58979109397384,0.5053742846004211,27.07,1.66
4,7.260374964883445,-0.3072139268019437,18.570786591455903,-0.9855984892186078,-19.129045162199642,-0.4264322716038854,27.12,1.9
6,1.7212860967411894,-1.8998711688172345,12.184481641418843,-4.296266777395183,4.218316183818065,1.2326462735650636,27.07,0.88
5,-1.3695974811716083,-0.7540296349023903,10.321243415909079,0.27141648450941525,10.652762101602587,-0.18455647002422015,27.02,0.99
4,7.132717632321089,0.015169050375378298,19.439558185403463,-1.0306928213607522,-19.11937982604475,-0.6057084487958824,27.12,1.9
8,6.757027734250211,-1.1514082116578477,19.923208807862725,-0.3920087169967771,-0.15895314095359106,-3.5441628819995263,26.98,2.25
6,1.1092854758553492,-2.3914099971057157,11.876592798947378,-5.465916278632818,4.695959885200338,1.2019743108746133,27.07,0.88
4,35.238802347801716,2.8339059424295034,100.96314768009167,-0.4852786858610396,-18.65513403996063,-0.5385940686620141,27.12,1.3847301699553254
8,7.4644554778721055,-0.7319221106977909,19.0194697866132,-0.17275817092606416,0.06468960060732878,-2.881979281986585,26.98,2.25
7,-2.60180724964639,-1.6140080145218496,6.744120111427688,5.000673223518687,-9.25917381386118,-6.603883570693079,27.02,2.6
9,-1.0267805226896491,-0.824043474102011,7.710841362328646,-0.8897986788243898,18.760123091310792,0.5480563145866109,27.17,0.65
2,4.259483942899131,0.5311501276704786,14.020560354862255,-1.6929591575392917,7.278362059297197,3.3412626473384957,27.07,0.84
8,7.09975562966576,-1.222143644635717,19.598274646133973,-1.782518895136368,0.26200056978320413,-3.288800220911587,26.98,2.25
2,3.935886626244703,0.011112516895998487,13.66667773540127,-1.4662471609031014,7.135751751094381,3.0756217679464877,27.07,0.84
2,2.6993502275904824,0.040460884625991095,14.779985178126198,-1.7212298664369958,7.877802310460709,3.4661500600303925,27.07,0.84
6,1.0606488111698136,-1.764194409296831,12.003581034910445,-5.055435693696938,4.097935642123616,-0.16045254711015466,27.07,0.88
3,-1.9191926301658007,-1.558081248340734,3.716444504286486,8.149470058737933,-23.527429100859774,-3.2150676427030227,27.07,1.28
5,-0.5412606073768569,-0.04686669491415629,10.751068833671084,0.7396079796224636,10.830185018133076,0.3484786568155368,27.02,0.99
9,-1.5086232356849236,-0.7253287012371322,6.996091349487094,-1.714512469474748,19.75033632964285,1.3191776165904479,27.17,0.65
2,4.396866372854825,-0.9959277565295989,14.427643717333897,-3.2051887700571635,7.952541634328719,2.9855926466909826,27.07,0.84
6,1.6900527541908792,-2.5989892394871967,11.78270796667358,-6.076905150948264,4.4736246046470125,0.7339680353323018,27.07,0.88
4,7.092847415052273,0.711773848620858,18.730197052580372,-0.8380522229208192,-18.5445911727651,-0.7242357799619948,27.12,1.9
8,7.547550486671293,-0.8499196910686336,19.572236763741298,-0.5299213111278217,-0.2566457186819967,-3.097065792277109,26.98,2.25
1,4.070233396583362,-1.4299816366267177,15.127772153982562,-3.883967836071845,19.410937747562702,-0.3233208360484846,27.12,0.81
2,3.5832741606220684,0.6900823373848114,14.236679881771103,-1.1381436964642782,7.357265846033853,2.7655686053209525,27.07,0.84
2,3.8314003553247993,-0.29108707673996265,14.741586864229944,-1.6131647301490901,7.685075449309758,3.8172773861296423,27.07,0.84
3,-1.670971624537761,-1.892562046218609,4.070480322756005,7.798314685951759,-24.032428083143248,-3.013027570194772,27.07,1.28
1,4.645541269557901,-1.2011381572925879,15.796911548194323,-4.092619980374167,19.616344332515734,0.5932196525244964,27.12,0.81
1,3.7728197010606106,-0.4405125059826649,14.057149595564109,-4.353430978983054,20.321894009267684,0.07581526895972424,27.12,0.81
3,0.0,0.0,0.0,0.0,0.0,0.0,27.07,1.5542479575583261
1,4.465598427523362,-0.9829834826676396,15.78350950885992,-3.9804139231137197,19.973948587066467,0.04350106029429035,27.12,0.81
7,-14.524069440277636,-2.8630035389214465,22.310736042638325,4.107906143946343,-9.486909113040374,-5.657800352713895,27.02,7.292572263985587
0,-0.3265843155345444,2.4778306628008973,16.454926548227686,67.26310000591978,88.5688585050702,61.3882383424187,27.07,2.7437681225252346
4,6.04162852939956,0.27435239689488633,18.447808758955723,0.40229985739028906,-18.65238014001046,-1.284783690579617,27.12,1.9
3,-1.9415466635653011,-2.4655830069342675,4.100735408534349,7.866721897508157,-24.048079718885443,-3.325828998285542,27.07,1.28
5,-1.2800823202038085,-0.028737052024512294,11.021766066791782,1.07876443706533,10.007913729832218,-1.213062226086135,27.02,0.99
6,0.7237273592938466,-3.1971459282569814,12.86953334639457,-4.968702334321838,4.391853555566296,1.0465266527953498,27.07,0.88
9,-3.7667823275912338,-5.544978790112071,26.790260410827866,-0.14014014289559285,19.15182424198504,0.2579053570322185,27.17,0.9647822906544932
2,4.249914101072643,0.5983550145616043,13.64293161492054,-1.5659588976131862,7.555715742458668,3.6261258600385453,27.07,0.84
7,-2.783598209196116,-0.7720647462412971,5.9755426681001085,4.3404300172793455,-10.67700945551344,-6.6894948958229135,27.02,2.6
7,-2.252982378915057,-1.2084138960701047,6.3939333837836365,4.535276427833241,-9.726457408740565,-6.650695869384184,27.02,2.6
7,-3.451969684448634,-0.8889781288956033,6.784797427359934,3.85181779210033,-9.889283517725554,-5.5028648454097135,27.02,2.6
0,-0.5819878005511921,2.7522106362056586,14.82855148092882,-7.310520348583792,34.482688807329446,0.029289251594437155,27.07,1.66
4,6.876852150620309,0.4984062965765208,19.068444018817342,-1.0886509171554148,-19.98442291399712,-1.1918378523958355,27.12,1.9
5,-0.24501480295461647,0.11342292114102348,10.082368072429812,1.274647558947246,10.971699031819039,-0.8259376177541298,27.02,0.99
8,7.47836316292999,-0.13103360543652565,18.47451175909363,-1.7228704355687192,0.35995552725052693,-2.9151153030892742,26.98,2.25
3,-1.2371461256871696,-2.0284375809921267,4.155796972937776,7.6388151467082315,-24.289540642266264,-3.704849939943742,27.07,1.28
2,4.883483799162395,0.07578783479629604,14.313675950909724,-2.3201004712316164,7.890205929361919,3.0962929804186468,27.07,0.84
0,-0.6726510778748213,3.410395945407514,16.002972883998346,-7.230437181880612,35.4622293135115,-0.27301245929675133,27.07,1.66
3,-1.4071274496603332,-1.754704310193986,3.5069137641996804,7.845161339644616,-24.776381700833763,-1.8434146013768422,27.07,1.28
0,-1.2849575992431281,2.361085235134949,16.216452396205955,-7.158535001614915,34.66654908985917,0.6727045861972061,27.07,1.66
9,0.0,0.0,0.0,0.0,0.0,0.0,27.17,1.6064567153055038
2,3.8287526306014477,-0.18120871948509037,14.56192996041281,-1.793810788545669,9.061484140593686,3.334750715387931,27.07,0.84
7,0.0,0.0,0.0,0.0,0.0,0.0,27.02,6.7781497216510544
2,3.6292438716550945,-1.0141771483306692,14.369054599287493,-1.5802587466028781,7.293738147650298,3.2479166270381166,27.07,0.84
3,-1.8796793503350344,-1.86792327064975,4.050601757387557,8.141917349832855,-24.59035555828504,-3.162411928640502,27.07,1.28
2,3.434999858120944,-0.2095889522985298,13.177506882547673,-2.53800085945891,7.554617378710847,3.1333288662671643,27.07,0.84
1,4.005862504896393,-1.5610504675339536,15.177270761354915,-3.6418009319877407,19.335730623694808,-0.1368241701681095,27.12,0.81
8,6.713613872466391,-0.07584934820502243,19.5650557369192,-0.7408707674899131,0.4954652576473,-3.2410422027823715,26.98,2.25
1,3.3699457553136165,-0.4086203070128238,15.589832110788626,-4.846503152228592,19.098093229591544,-0.2447978383208926,27.12,0.81
6,0.5472585302314927,-2.480024321390988,12.064047827874036,-5.034967858709946,3.515349965149468,0.08481652510092241,27.07,0.88
5,-0.15486713140297725,0.2559977616915325,10.165408495606062,-0.4258529482096007,9.495799323387317,-0.47500529811707143,27.02,0.99
9,-1.1410391818640793,-0.5994052521539804,7.367982338361016,-0.9692565704939448,18.35296819750711,1.221434876069897,27.17,0.65
5,-1.2549743998937721,-0.31561098610018423,10.472457274491862,0.24999796739864133,10.61296843656004,0.08878564318906834,27.02,0.99
1,19.025677521054224,-4.383045198857306,60.67065214440682,-3.2002043184127147,19.44393309965806,-0.1853545372757942,27.12,2.3840205135664587
9,0.05692689937683271,-1.4024166693747169,7.024818346569181,-0.5980638797813854,19.54970792681126,-0.3813765037163003,27.17,0.65
6,1.022089181938564,-2.643618828877045,12.026305977901805,-5.137832523423705,4.159491248137121,0.8838140481956305,27.07,0.88
1,4.43781784728853,-1.4911638266038976,14.56061294613736,-3.368021466219281,19.668125693170243,-0.13152088495326297,27.12,0.81
1,12.527845683427145,-2.7072597974485983,44.1271676985179,-4.166034981583497,19.28074923235587,-0.18349075324571007,27.12,2.286321933841146
0,-1.328214670656211,4.199988055568733,15.59430207364577,-7.057466463308948,35.43283582700439,-0.18863283604415504,27.07,1.66
4,6.979862361059926,0.56688122617121,20.561192801161535,-1.4085624745502705,-19.471233362026013,-0.48574169885415547,27.12,1.9
5,-0.29299719085715675,-0.48398295938731795,11.000259417426099,0.35222959578320867,10.795872000459951,-1.2125908709439028,27.02,0.99
2,4.679476351299495,0.39616983397129957,14.37125069267512,-2.05903270653913,8.743177011658284,2.7559479934645017,27.07,0.84
0,0.3683630562054685,1.8139768972058263,16.22122948748826,-7.037070069222547,35.63425476830217,-0.37486076416928993,27.07,1.66
2,3.6923980033268604,-0.2263674741428337,14.548425014256333,-1.8821057511461083,7.69136458795276,3.688831451608356,27.07,0.84
6,0.22405636698404052,-1.9602849265734532,12.096188877942108,-5.368537537079858,4.0754940846096295,0.7141072775303704,27.07,0.88
7,-2.561553531342816,-1.178541687636913,6.542635625331244,4.016816282836562,-9.384980989668401,-5.9529989570866855,27.02,2.6
8,8.014250781366506,-1.236908102559052,19.91769650625523,-1.1896659507067424,-0.2535244883761717,-2.342797126222742,26.98,2.25
0,-0.3659807333277193,1.274714757050431,15.950497145455822,-7.320899943989298,34.53660938229747,0.30835392237465903,27.07,1.66
9,-1.5299363175317975,-1.7785378403484475,6.864889142412018,-0.8912192600130504,18.4141677629694,0.3460890245421635,27.17,0.65
9,-1.0890762601015456,-1.169337265266613,6.900175185533378,-1.475891200849625,19.356844832913115,1.5533844546898723,27.17,0.65
4,6.629101447231428,-0.22798791321072326,19.778501763524886,-0.37494703437396043,-19.625211907984568,-0.9242162452672336,27.12,1.9
0,-1.7753886579130111,1.190318436875895,16.158066627922405,-8.497329722592118,35.33705238163396,-0.11876867002824709,27.07,1.66
6,0.387179209105036,-2.3681011170996245,12.692361744060763,-5.413795495348021,3.961015485176148,0.29222402239050327,27.07,0.88
2,4.025918432705101,-0.5012741581397646,14.296717561984181,-2.386994934051947,7.761811345242619,2.441277464972796,27.07,0.84
8,6.201262986249902,-0.7458471375005946,19.862712449190454,-1.789162729777996,-0.02040361674735472,-2.665619994218117,26.98,2.25
3,-1.7712516932397835,-2.8370182347727497,4.528345036465868,8.734149612224142,-25.118699538305677,-2.60760797107514,27.07,1.28
1,4.34367534060573,-1.0154415941835906,15.350126896235695,-4.31289945008993,20.161104916088842,0.002580620497546482,27.12,0.81
8,6.663943138147237,-0.8504764651295441,19.677596952181744,31.159332465235934,84.95610985935157,70.21762631142876,26.98,3.131059124564443
0,-0.7826919328883162,1.8551028403445027,15.069024631166613,-8.116000593390387,35.49726843293901,0.717491474253787,27.07,1.66
2,4.491345608008204,-0.05367324289028676,14.014341473199494,-2.1209996375444162,7.8329700647707385,4.1729093932504515,27.07,0.84
9,-0.8301885081168913,-0.8200207683938323,6.721916737125745,-0.9526121357281502,19.953557604999688,0.8641632307667264,27.17,0.65
0,-0.7730579006668075,3.6943079748812657,16.66734321999654,-8.08505283066258,34.65622016568758,0.5257593784135819,27.07,1.66
9,-0.89707981727147,-2.006564003487469,6.789691611111407,-1.2348238668084357,19.14149267949848,0.8747055780200557,27.17,0.65
9,-0.5266414688628602,-1.4378089787060784,8.069756861080231,-1.9934445711868476,19.458116453346435,0.5010603771186717,27.17,0.65
4,6.556953150674852,0.37323267332201004,20.40725167858634,-1.1652970856423381,-19.476863766126634,-0.7679065881392846,27.12,1.9
5,-0.946225363940796,-1.0719837869495528,10.674483713616677,0.15142220017816072,10.58892972683093,-1.2193063537163447,27.02,0.99
1,4.166460002885841,-1.6087841539800178,14.79523349094927,-3.9328005077830266,20.066695583621517,-0.9647982584610888,27.12,0.81
9,-4.620726468656904,-3.9849909036703615,24.776597913378914,-1.5379515792170175,19.648892936634322,-0.45798226716154444,27.17,1.2849082405263388
9,-0.7775775906208697,-2.1230963010151567,7.1642978589724695,-1.365494657288675,19.257120491895225,0.9343917269684581,27.17,0.65
7,-3.53523013755573,-0.9618722074816481,5.655861995561882,4.944260658444557,-10.392295162482892,-5.91688358856074,27.02,2.6
9,-0.6114055582207094,-0.03430154777329664,7.326169967143662,0.027686980827717145,18.3110771229293,0.8271401935593994,27.17,0.65
2,4.904049457341826,-0.1751823672171493,12.93385667169407,-2.3283635858619185,8.837717748640532,2.8926000005988293,27.07,0.84
3,-1.2328914156526827,-2.0421193703889196,2.922795422025522,7.836965016260619,-23.71165115202139,-2.3433542730199006,27.07,1.28
5,-0.6535183354180053,0.5440033349870549,11.000218497331584,0.9358197678656432,10.767627246289315,-0.8986568033027953,27.02,0.99
5,-0.17384590392035043,0.3156246680214539,10.858586374934191,1.3425872504132301,9.87370199479356,-0.6872318896215012,27.02,0.99
8,7.509400891916967,-1.6838651779725877,19.675979652570078,-1.2487226673012015,-0.3335113680423546,-3.686169059356636,26.98,2.25
5,-0.5246932263102551,0.0371248035961194,10.74340588078703,0.8130579112405769,10.299720353282911,-0.6711636799574139,27.02,0.99
6,1.70307675693293,-2.6515193799109227,12.882232530984911,-5.4669887643213295,3.7937434154467176,0.6032661059846389,27.07,0.88
0,-0.8580209511511282,2.576157711930356,15.938724955066345,-7.2197498587591875,35.33827592021179,-0.1925334080064532,27.07,1.66
8,6.7924482517713525,-0.7308877731802202,19.918243738565202,-1.2375533686887423,0.19046126561256213,-2.869715065811043,26.98,2.25
4,7.100471765007313,-0.10908872705143573,19.219380100076275,-1.0305661098647716,-19.777130552311416,-0.28279336082322704,27.12,1.9
2,3.790416088271939,0.39124080329545086,13.473655233768728,-1.8173040072581295,7.3253212353746315,2.042384023354469,27.07,0.84
8,6.434556772848902,-0.88445832700235,19.584428110112544,-1.899578590577715,-0.3595816630461369,-2.7492649280721095,26.98,2.25
1,4.547734936209132,-0.5027422734697731,14.713366455295727,-3.0622671083589545,20.640425418837356,-0.9789295373757341,27.12,0.81
5,-0.8811234725421238,-0.6035764950238638,11.845639867926305,54.75801718252509,45.521659931861706,52.80993611916764,27.02,0.765676924078492
7,-3.1618852236010424,-1.3350693180103677,6.596807968152849,4.029885878685159,-10.107928161683503,-6.76375835938311,27.02,2.6
1,5.334405514997816,-0.9335305214282512,15.274095780700284,-3.2160911095687035,19.198425532808038,-1.2044756342340701,27.12,0.81
8,6.387965432282125,-0.9791263314847478,19.810727961995138,-0.743309236095246,0.0864772617365304,-3.4328289398571026,26.98,2.25
6,0.3138066498593032,-1.9074845490379044,12.043152876425559,-5.031119914936772,3.8676439244267407,1.0022387572484344,27.07,0.88
6,0.8529206192110955,-2.17393970458728,10.618018074635334,-5.4844498690870545,4.651472506177416,0.46411239576035196,27.07,0.88
0,-0.774637521529216,2.4772679970791476,16.160666681965473,-6.890347501503307,35.274363230519675,1.0081142790133484,27.07,1.66
9,0.1556675360345411,-1.0124146283205815,7.271963781406043,-1.3616401105414413,19.160479595075916,0.6233058496523154,27.17,0.65
6,0.6156242237874932,-1.5335453685709952,12.196234300144589,-5.116128001789692,5.157632097773332,-0.0015792360816134776,27.07,0.88
7,-3.610814414130317,-0.1632518295509422,6.270984639016245,4.821862981556734,-10.112997025463685,-5.67186670529693,27.02,2.6
0,-0.8469034062758136,3.256681418341889,15.950990129085064,-7.403777610219364,34.77332993654627,0.48479613670896227,27.07,1.66
6,1.3442100859536183,-1.8355978343924657,11.748764262380947,-5.574397521007348,3.4597324126482882,1.1761620079396538,27.07,0.88
4,7.712446842583558,0.42505602732544545,19.77425381082788,0.15188526775853506,-18.52440244640482,-0.6949437717536191,27.12,1.9
6,0.03408538589754906,-2.132332967291441,11.352278616708846,-5.394015963144313,3.9928042617955737,0.4465015293920366,27.07,0.88
4,6.340424311020427,0.7275303943461273,19.396933340905992,-1.3052660484341092,-19.34773635261468,-0.574686995847778,27.12,1.9
1,5.200241878415459,-1.3022942531303512,14.055467445293328,-4.4531146264049735,19.287465813477834,-0.15698860600594094,27.12,0.81
3,-1.4721034461915035,-2.0549555159423614,3.939906213704457,7.015305337644298,-24.21281908103846,-2.8837714267325865,27.07,1.28
4,6.355077125013217,-0.3562521007014895,19.245038088916278,-0.7599672241356394,-19.34961417701041,-0.13151780666465285,27.12,1.9
8,7.255992697556522,-0.11600713080063707,19.929528987113926,-1.0401470795268508,1.2704259557409112,-2.7073887873862086,26.98,2.25
8,6.641329320792037,-1.1668990199501175,19.538418553268155,-1.2176512744852044,0.4987288655748755,-2.3133059582702877,26.98,2.25
9,-0.3207615585931226,-0.8838625868290312,8.141921337284753,-0.5786875310672273,20.068743936693558,0.18099481742089651,27.17,0.65
8,7.466014394295376,-0.10877998932086996,20.429100964378108,-0.9295233964419173,-0.0889364705989692,-2.034578341994739,26.98,2.25
0,-0.6566079991426729,2.48197992640588,16.636367129446096,-8.021300037889102,34.97626736128731,0.543146443545349,27.07,1.66
6,0.47856536982668285,-1.3862948335347836,12.243328564049142,-4.403018216284683,4.376044805873549,0.9502586887226966,27.07,0.88
2,4.285847954524216,0.00025812993803948914,14.93320552971036,-2.248431172699912,8.363153956649999,4.095637745660708,27.07,0.84
4,5.864622971851891,0.47375943539923604,20.05485945690738,-0.8335470186458257,-18.646562566028692,-0.4759690412870941,27.12,1.9
0,-0.13435279675185813,2.7344848308873453,15.54613381843337,-7.942514493493133,33.650065014636645,0.7500786095095278,27.07,1.66
8,7.09110068277521,-1.1643018363349935,20.2582363420255,-0.409446535354122,0.03880888977764779,-2.3949473992583203,26.98,2.25
7,-3.9228653879329123,-1.0264216732831934,7.316224318356726,4.723458623360674,-9.296664130682982,-5.854306166232755,27.02,2.6
4,6.41641770870788,1.051824078759755,20.106315424956108,-0.7680298994992699,-19.735022462573056,-1.3939769001562556,27.12,1.9
5,-0.004149874176213153,-0.6715174563428785,10.654905592634755,0.7355927395641979,9.722501334617622,-0.06482543875725699,27.02,0.99
1,15.084018843377185,-5.889957369053312,60.964377194188515,-3.201133690195517,19.41812128749313,0.09751668055855978,27.12,1.0587034128447455
6,1.1761547933119725,-1.6480931361520963,11.787421007406182,-5.218856996335331,4.08891974847609,0.5361504670212334,27.07,0.88
4,6.40314077764596,-0.33450454437539945,19.94407917107139,-1.9848881630072857,-19.233729572462238,-0.8141115618219031,27.12,1.9
7,-3.2458747925314535,-0.7477095495338478,6.152332281103806,4.754515240267988,-10.124820637148998,-6.305131732909128,27.02,2.6
6,0.9980118496917275,-2.68399300325059,11.873851889763497,-4.177923291665848,3.643909139400574,0.9160154947771579,27.07,0.88
3,-0.9684293797757388,-1.6021372332743349,3.9362113781637644,7.68716154739142,-24.86550876382356,-2.043425015279836,27.07,1.28
3,-1.4010484331297428,-2.1249191604591733,4.823109367443824,8.435896927615989,-24.711136147110675,-2.9230082292131403,27.07,1.28
5,-0.3165496465961819,-0.7882782543599753,10.551398246130354,0.49470404815985575,11.208462789277247,-1.345501650138859,27.02,0.99
8,6.109851206982662,-1.152961917683893,20.159689573784128,-0.30898445478719394,0.73737348711268,-2.733496235879181,26.98,2.25
9,-1.1901943830668569,-1.5877654306580193,7.360885063493093,-1.6063353179744835,19.095771312495742,0.20495193151671465,27.17,0.65
2,4.205938589199886,0.7049732922236467,13.992303694201834,-1.9259806527260093,8.122369619975846,3.7039226133328134,27.07,0.84
2,4.217500118815659,1.0453257076851241,13.839676564739708,-1.4747269794146385,8.222299719453622,3.086232041303574,27.07,0.84
8,6.208575495358013,-0.5002255754264346,20.122931895753247,-0.21558718947003475,-0.063955337134701,-2.3933610756648243,26.98,2.25
0,-0.6869452462888459,3.2634845048662258,16.587626239975133,-7.589194785020725,35.10461911939882,0.06254806686202558,27.07,1.66
8,7.7965186627229714,-0.7597659467849112,20.774900306272563,-1.6255557388017277,0.5339296905488673,-2.6457448366427165,26.98,2.25
2,3.8067293911029707,0.4084881104163749,13.538959268834416,-1.5341386160621733,7.734376096772431,3.3134521695720274,27.07,0.84
0,-0.9006870162110836,2.117867661941235,16.453755403304452,-7.935508725540081,35.21495768832434,0.13369429451800702,27.07,1.66
6,0.6618371736369733,-2.562870763671769,11.330503749427383,-5.271420028339064,4.522283943936778,1.4837851323783529,27.07,0.88
9,-0.1646043474348543,-1.0158867720865425,7.060915587453529,-0.9138320628558443,20.042664265674013,-0.6525902058596565,27.17,0.65
5,-0.10357307840561092,0.21942877536787342,11.355959092206643,1.0354610807218982,9.27740004186926,-1.243887070475894,27.02,0.99
7,-2.7698406731190963,-1.483845861152433,5.715241352245152,4.614793665663907,-11.146235184790575,-7.405829802004001,27.02,2.6
7,-2.407519776386901,-2.488537799259655,6.578762557209307,4.164437785007613,-10.73973412082139,-6.089207740539421,27.02,2.6
6,0.6442722298019237,-2.316428682816176,11.785266973031643,-5.9909780670605866,4.423283847825906,1.5122554435040778,27.07,0.88
7,-3.515054724999302,-1.7049256983470453,6.369364676841058,4.881405717839779,-9.563085249013996,-5.181791814612597,27.02,2.6
9,-1.2956656574198138,-0.7483565519506375,7.493144129951058,-1.1453043583916451,19.990673464141686,1.3995622536849823,27.17,0.65
6,1.3232429696327943,-2.217866878034172,11.382011481856429,-5.606214274838516,3.2114046276314987,0.12617548913790322,27.07,0.88
2,4.868852254546457,0.5586310539915796,15.626917828756001,-2.3358826293457793,8.276640597233856,3.5904640669184555,27.07,0.84
4,6.485864287117245,-0.25116266397905185,19.60628380134452,-0.6395555178237161,-19.21093343956262,-1.6065551571499792,27.12,1.9
0,-0.7928198582905729,3.8714351674312093,15.002094839918627,-7.308403388990813,35.09347015715178,0.6548396514040055,27.07,1.66
3,-1.246844939460198,-2.2649236509529715,3.9884668342872085,8.075865039488985,-24.875245158105386,-2.490975362985182,27.07,1.28
8,7.3737413443166755,-1.1817591697334269,19.459769502368754,-1.1861494473396612,0.8773014895148754,-2.1048095902561297,26.98,2.25
1,20.567847851148368,-3.8484118349375342,62.02507596847098,-4.552324259894167,19.800636453140555,-0.3263166165739274,27.12,0.43165496632336997
6,0.010102052185107846,-1.7321838605171,12.046155671051492,-5.166632931362083,4.1531115771793665,0.5963465987214196,27.07,0.88
1,4.3956386557764136,-1.0249632032952627,14.850939030049673,4.909908958815418,82.42048923407854,28.623319814931595,27.12,1.0841938603427062
7,-2.9436675190170245,-1.098190625991277,6.03948939283115,4.656120889278979,-11.088454682040162,-5.859120544764192,27.02,2.6
4,6.34002827128404,0.6312179987463363,18.781927244104097,-0.4724255661908223,-18.786960137873425,-1.5953245838381722,27.12,1.9
6,0.7011549817944409,-2.2953890305191784,11.952961300385276,-5.66004026105758,4.244811148817195,0.6589965341932347,27.07,0.88
8,7.099944492115954,-1.8314803528896406,19.08612466633102,-0.7377823643161003,-0.016511325665935106,-2.731151382401782,26.98,2.25
0,-0.3268912012270975,2.129918767511727,15.463380906039554,-7.406559010673311,34.693740198980755,0.50945268800871,27.07,1.66
6,1.5289882358509703,-1.9175179712541623,12.347876425294965,-5.736289054846548,4.607455647396225,0.9464979700102862,27.07,0.88
7,-3.434741069430303,-0.9503860195952667,6.769736626317809,4.134313430964227,-10.099983381221145,-6.280800832546354,27.02,2.6
2,4.613949040353389,0.8042420258415195,13.111568685080528,-1.8190329846774298,7.824144312693535,2.66328107881035,27.07,0.84
0,-0.32612818391934556,1.711943945044915,17.0008358489803,-7.538316391532737,34.605677852805925,-0.22049305660022606,27.07,1.66
4,7.200379110689068,0.05825882560394435,20.184035104624716,-0.8465968837622867,-19.62644912674709,-0.27414650639277605,27.12,1.9
4,24.55062410925582,-1.9532370866131703,72.12569407797217,-0.5576660181450082,-19.35294474652352,-1.526755727082343,27.12,3.3357858144641797
7,-3.7327421151628903,-1.932446477452074,6.41724161695946,5.226585192890848,-9.909917316476385,-5.836427599642594,27.02,2.6
6,1.5538803435444666,-2.2082795633225594,12.228489643702966,-5.15105858557049,3.927826835491003,1.2082473575111037,27.07,0.88
6,8.098007362588236,-11.19801235253842,53.76276055660802,-5.2405441728457465,4.075480001819755,0.9431415704756734,27.07,1.1656820288563852
1,3.941274938056892,-1.1749206885617158,15.162680070078267,-3.3490041475346084,19.397863217819715,-0.9983718095375076,27.12,0.81
2,3.762783478061603,-0.10240883072280645,14.518227786200947,-1.4426362228404868,8.04817678911173,2.517085735630643,27.07,0.84
6,1.1364052909376825,-2.2595866767757826,11.64465771702569,-5.8424271360150675,3.670317056885809,0.17529255565455515,27.07,0.88
4,6.260233091195051,-0.08155847984079742,20.251664640045274,-1.4877193918391656,-20.036450903628165,-0.5364259337614439,27.12,1.9
9,-0.7260486878288455,-2.1864580699207146,6.871601532472006,-1.2420855427897817,19.867949610274657,0.22971439626036383,27.17,0.65
9,-0.6300835752474524,-1.2186407788233424,6.961987997693623,-1.9312900304145932,19.902730535446665,1.1926451530848758,27.17,0.65
6,-0.34463895506942166,-2.913298501432438,12.082001478301722,-5.475616874088825,3.284540365493263,0.335112029299943,27.07,0.88
4,7.310745198502463,-0.8807957465605372,18.894398250662704,-0.4676742079161368,-18.778679072883534,-1.3645790015414059,27.12,1.9
1,3.85751536567231,-0.9176653474280044,14.589902732319542,-3.5990655246393417,18.8159592869405,-0.7648693770869057,27.12,0.81
1,4.449249930426528,-0.4073406927280182,15.13954803180002,-4.0628627788874825,19.891937081992545,-0.20252799343504452,27.12,0.81
8,7.204085075824142,-0.9632988090364456,19.343437225018203,-0.004262112198522017,0.5156112716923008,-3.1474547898846437,26.98,2.25
4,6.272036900165842,-0.8536354105182822,19.89219394971982,-0.3563921387209307,-18.63138796544595,-1.1299964071159068,27.12,1.9
0,-0.4361585600860627,2.4286290999213276,15.170187798629762,-7.058048342726924,34.97483986302547,0.6133176953484203,27.07,1.66
0,-0.8373204897488902,3.3083437554201436,15.902187644130525,-8.073909135103944,34.45580367177624,-0.11438076653846074,27.07,1.66
5,-0.44212799634590494,-0.1663759042386365,10.838316523723881,0.6255907314573044,9.56286824255609,-0.3753741674767628,27.02,0.99
0,0.6946860505140285,1.9250465127819005,15.805262048967904,-7.692784458026431,34.28339578781711,-0.07195873675886111,27.07,1.66
9,-1.1779546699057049,-1.7519336494119844,7.504799078008785,-0.5607028339736432,20.313881915822417,0.4059854077603914,27.17,0.65
4,6.8861475679464785,0.12318726669666265,19.470694795983363,0.12302544608791777,-19.97697440145555,-0.47312410036287844,27.12,1.9
7,-2.8942400202610434,-0.678625398258015,6.01480357291884,5.214588900672934,-10.749806669496152,-5.753556046578463,27.02,2.6
4,7.251475358490232,-0.14541390468016815,18.89487422825216,-0.3081803086622523,-19.654771046845738,-1.015629016486765,27.12,1.9
9,-0.9806900830937048,-1.930540686008912,5.755937454394832,-1.7758810295656642,18.416492206969618,0.8712221364692291,27.17,0.65
6,1.4051579181761997,-1.402876854008501,11.342185902236764,-5.188483936603612,3.717519490757106,1.6923487727779998,27.07,0.88
5,-0.3477527317351329,0.010383001742359163,11.046774708243387,0.7332664951924348,9.9958509405499,-0.16350267005405938,27.02,0.99
0,-0.3570094924022017,2.3799672223746775,16.124934446941737,-7.174102419423716,35.176696290421596,0.163273717563373,27.07,1.66
5,-0.6524459266448689,0.38699933208791804,10.66023716435063,1.1914209067164325,9.754299060523556,-1.1218171199904778,27.02,0.99
0,-0.4816809424137931,2.59476079024561,15.42777618359728,-7.8682110727591015,35.17749664950337,0.5039602806974897,27.07,1.66
0,-1.5489251355906941,1.757947541397145,16.4984533978436,-7.767181523601099,36.33521582759457,0.10723474180201789,27.07,1.66
5,-1.4387570640687855,-0.20036226135155935,11.14039415275543,1.1752949915629924,10.724223013741353,-0.7979422047774962,27.02,0.99
9,-0.004399127144150916,-0.8849189094707969,6.919959523884906,-1.775229854427701,19.68960736253172,0.9891887648991992,27.17,0.65
6,0.7617531370124038,-2.6098756855969287,11.71242262319328,-5.98374441139987,4.456680426034205,1.4160640243834894,27.07,0.88
6,0.39760905807508307,-2.292486368622583,11.685574987753368,-5.152451890464821,3.822001983803432,0.38398151976084216,27.07,0.88
6,2.2342851280851246,-6.441194576406149,40.42712428334736,-5.299858387473712,3.9891490764010706,0.272597803973456,27.07,2.1004607255069585
5,-0.062203480416127666,-0.23548849939001612,11.52215385239069,0.2684448978534176,9.883388764202515,-0.6007893404787414,27.02,0.99
8,6.769523851899671,-1.2012978169046598,19.43168884980359,-1.1682164632674006,-1.0994378567410554,-2.943556952722563,26.98,2.25
7,-2.2076205441192425,-0.9856624524230968,6.239234718069965,5.5177245622707725,-9.04918923903974,-5.617333322656274,27.02,2.6
6,1.7266852699506743,-2.147772853502408,11.728800526605967,-5.486501272056577,3.9617697141438337,1.0520491004711356,27.07,0.88
9,-0.5526873755248553,-0.8555314906492382,8.631043780326982,-0.5786444881733663,18.951038739777562,0.45538198682342973,27.17,0.65
5,-0.1706952196136824,-0.3747231168581936,11.202966007854917,0.15585784528549596,10.057315401479133,0.06017177547190389,27.02,0.99
9,-0.7616356304290768,-0.37777559634611246,6.957653420333636,-1.1616485940762697,19.095099950619915,1.950502820159826,27.17,0.65
2,3.642349627624076,-0.49671479589850015,15.011009157358522,-1.4219894816181853,8.474172414590576,3.3286221764323596,27.07,0.84
5,-0.5609986442599326,0.12831911943651433,10.93742846109376,-0.44599525910088195,10.87132290117331,-1.5588796428492269,27.02,0.99
5,-0.4844795591709667,0.26900779950024484,11.467899868078284,0.33098987164196786,11.426411257534983,-1.5654748736139419,27.02,0.99
9,0.0638837785342462,0.41800163824416936,7.687021025150127,-0.5227267477688315,19.686668995798446,0.4447810473437963,27.17,0.65
8,6.785309153168643,-1.470094359376427,18.778226623466203,-1.427685574397394,0.1269639512438888,-2.8283053618783742,26.98,2.25
1,5.194284222732456,-1.9146530217656381,15.084429681303718,-3.8167089515699564,18.639052896714787,-0.4524389494282328,27.12,0.81
5,-0.431084928522132,-0.6010180353224744,10.771420109376779,0.9133586739504755,10.732586288822194,-1.9195912534083677,27.02,0.99
3,-1.1371737121798295,-3.021004941666823,4.029868128580129,7.477653359327889,-23.802419949882935,-3.9377947741266475,27.07,1.28
0,-0.8078745571173683,2.1396408985290494,15.71766962740145,-7.850969733481221,34.979940339926586,0.034843502257676545,27.07,1.66
6,1.2550643126610854,-2.3468480346368326,12.326698264836795,-5.849010667520462,4.3986843815698045,-0.039592507145357225,27.07,0.88
4,6.156289499117055,0.1346919245635921,19.435312652373355,-0.6079993083987728,-19.292905240270922,-0.7953189286250627,27.12,1.9
0,-0.6262159091016388,2.211516821646907,15.620320543299405,-7.295421969379925,35.412334235070986,0.4975477533486149,27.07,1.66
3,-1.0004571356203344,-1.8610108828149383,4.516500964442107,7.905741729487344,-23.980525700125717,-2.5929245944072856,27.07,1.28
7,-2.894456714444307,-0.9990532217808211,5.120354741901419,4.889909769102475,-9.252462162175446,-5.727960397762995,27.02,2.6
8,6.603435754669871,-0.5667280672648582,19.733768035023424,-0.6610591408174606,-0.2848610864354961,-2.8213217038151903,26.98,2.25
2,4.603632918011882,-0.990210214082124,14.402114867335088,-1.7918309304770677,9.152404607481245,3.3672735756135825,27.07,0.84
6,0.0,0.0,0.0,0.0,0.0,0.0,27.07,0.7086347801784009
8,7.212458129911833,-1.2970508971899228,19.82373810824025,52.88555086471168,15.528543308669812,50.0730933951007,26.98,1.4868329230277322
8,7.193062145448252,-1.2125402568591193,20.534581480367017,-0.7516774047487979,1.3015289857700354,-3.018670095357984,26.98,2.25
0,-0.47720905483510556,3.2058742810652654,15.425867053628227,-7.260285723172985,35.61043238785213,0.17999747088006987,27.07,1.66
3,-1.585195019317939,-2.300440202757827,3.8406559390052464,7.887430918504643,-24.983315153095372,-2.4766379918274684,27.07,1.28
2,3.392670663231215,0.20860907054276712,14.41075313749731,-1.1704489317771514,8.534138855726733,3.9205678287413357,27.07,0.84
5,-1.1542215484246856,0.32075623933390085,10.545727763027168,0.25335467392445143,10.672195126792559,-1.7892257888046115,27.02,0.99
0,-0.4154008866253134,1.8232037978577664,15.985577739633568,-8.032595819617557,34.61498291871756,0.3759781798501841,27.07,1.66
4,6.691110947762184,0.2582880783344694,19.749537501520415,-1.0240735134365588,-20.354564914075876,-1.2131419657119435,27.12,1.9
7,-2.799805326827473,-0.8256029556628882,6.25642970105285,4.474853016123202,-9.86130545076671,-6.394864192174917,27.02,2.6
9,-0.7093547628256841,-1.4342061845946577,6.995046024766909,-0.732612333466694,18.852345254262136,1.4416402007348856,27.17,0.65
2,3.278285551135944,0.7463129302597279,14.528270514337276,-1.6282525545213231,7.682606173290036,3.3362242142250693,27.07,0.84
6,0.4567656297259347,-1.6441675813810153,12.239448470180458,-4.748977080669338,4.705067951073246,1.1563955720251946,27.07,0.88
1,4.855842149894391,-1.167237814131094,15.416608025781345,-3.5190252835346167,19.218720219344892,-0.14041845150354693,27.12,0.81
9,-0.7585860765396101,-1.759309413918512,6.227462864581303,-1.6415599617954957,20.00551009398733,1.4683546053187855,27.17,0.65
0,-0.05298972142968661,1.8845359864529043,15.16166448170133,-7.44554427006709,35.795789145421786,-0.36232368759680444,27.07,1.66
8,7.073092920169254,-1.047838439237851,20.397398055357662,-0.663047032387083,-0.058652486685955824,-1.3747129196669639,26.98,2.25
1,4.749355987918609,-0.6292035108581451,14.785798097971263,-4.337622679471761,19.104901728674157,0.303671223579825,27.12,0.81
2,4.496016112930491,1.1664717632569666,14.192163546437074,-1.350393904910074,7.767610708899539,3.6178079280686526,27.07,0.84
6,0.0,0.0,0.0,0.0,0.0,0.0,27.07,2.489411348972491
1,5.342188248350189,-1.3891561906367527,15.0525121733066,-4.225816419115835,19.91134868552926,-1.1322311384886112,27.12,0.81
5,0.0,0.0,0.0,0.0,0.0,0.0,27.02,2.166515735624584
9,-1.351782838739421,-1.7658212809917138,7.613919737694336,-0.5875904335035507,19.211024286677887,0.5322085893944447,27.17,0.65
2,4.55865727889551,-0.41815151586304405,14.043189260791069,-1.9347687346987896,8.3748387045524,3.687153957918578,27.07,0.84
5,-0.67065154210365,0.3624980777657659,11.169393377119778,1.0847368032457354,10.121168854329023,-1.4188924847495135,27.02,0.99
4,19.75247852267517,2.957322420729365,65.36325529984911,-0.23757147983992155,-20.188379464989616,-0.8666617704474397,27.12,4.51077503466631
8,7.489546837983666,-0.18327165532591083,19.37501909527357,-1.3354880542748582,0.2106906749892262,-2.781973634971678,26.98,2.25
5,-0.3861735728450472,-0.8122407074685541,10.527428841872776,-0.1469748372411525,10.530293047832302,0.1868954068294365,27.02,0.99
6,0.3488484080967197,-1.8080435205285732,11.419382766208686,-5.035262474773651,3.4796762594894224,1.3521515709266734,27.07,0.88
8,8.119146933106054,-0.7208712185626057,20.31787761315688,-1.2749550021865876,0.8046163494612029,-2.0488855360296543,26.98,2.25
8,7.8780401484704745,-1.0824788728544252,19.4299661815405,-0.6869635998234773,0.011134202758081274,-2.236574683713905,26.98,2.25
1,4.884217010230278,-0.7574147296885869,14.457046842575522,-4.377098135492654,20.23205105527227,1.35764713082862,27.12,0.81
2,4.123529735027075,1.0049409273365084,14.361118242742437,-2.2372755495501293,7.379344676078073,3.077472654765628,27.07,0.84
6,0.7433692490697048,-3.2402501813577604,11.20630511089231,-5.39213549759192,4.85201062122261,0.2522149473391768,27.07,0.88
1,4.479030047588579,-0.9245313652282221,14.859703393094792,-4.162740525238785,19.71195123893928,-0.841592956337375,27.12,0.81
7,-2.373870677567745,-1.7240718838911577,5.979741716309063,4.8831730790567365,-10.748099448684862,-6.014708932293608,27.02,2.6
3,-2.192307761623767,-2.524206381014439,3.1995044395025416,7.85584554338954,-24.364707788611867,-2.325633912374187,27.07,1.28
8,7.143534505050761,-1.198916375698722,19.435954277211412,-1.0123409696585282,0.12359883248904843,-3.663200451663868,26.98,2.25
4,7.864251102320855,-0.29895988297648995,20.370274684837806,-1.4028157721871601,-19.275313142938636,-1.0180617339405225,27.12,1.9
2,3.888702160072647,-0.10154586920636553,13.111507822189868,-1.3963929617832516,8.093063775478543,3.483780364284844,27.07,0.84
6,-0.056731533771006815,-1.7102522592654734,12.038936268454485,-5.4609694271003475,3.575830158220604,1.0381710470974541,27.07,0.88
3,-1.389691187638456,-1.392001639865867,3.7312480687368206,7.7354608439380765,-23.828394285276254,-2.655026330429416,27.07,1.28
7,0.0,0.0,0.0,0.0,0.0,0.0,27.02,6.084706706516817
6,0.9320477564171256,-2.110795957719322,11.689941961160413,-6.1765987950756704,3.2169042826252596,0.6170007282083434,27.07,0.88
7,-2.1246783524031447,-2.2082732080024012,5.878324957326809,4.1953167452254,-9.880727634313665,-6.281932162316815,27.02,2.6
6,0.9840889215973315,-2.002072376435943,11.419597007310305,-5.612739409987459,3.2380362338322244,0.582954146376929,27.07,0.88
0,-0.5460360990924135,2.011641071021527,15.505239413723977,-7.753115995188192,34.877545539763375,-0.01384197456763464,27.07,1.66
4,0.0,0.0,0.0,0.0,0.0,0.0,27.12,4.1124755995868485
9,-1.0245638805428812,-1.754043214284875,6.605555218277146,-0.8562062998765854,19.883981375854216,1.1213310205197555,27.17,0.65
3,-1.4037713387436115,-2.060067429428532,3.6688870483376106,8.233040362479308,-24.447048103841034,-3.0107894612159374,27.07,1.28
5,-0.4813220220356684,-0.3745987565758476,10.243765045493342,0.3260514555608258,10.796765571463627,0.05677627995796897,27.02,0.99
2,3.108193877567671,0.633558478205767,14.168967295785372,-1.9344607105303293,6.7840406624318215,3.108050103658032,27.07,0.84
7,-3.4602496045469375,-1.8931850543708642,6.9676818507056275,4.403038985973392,-10.484677042754122,-6.515387540896708,27.02,2.6
8,6.582887574895722,-1.626193200840434,19.6139008802898,-2.8066147176071103,0.023214869904677693,-2.6718638406029167,26.98,2.25
9,-1.3356223431235208,-1.340931792816861,7.0231683125950095,-0.0625856158527579,20.276203726225518,0.9736766312725516,27.17,0.65
5,-0.5526442691065147,-0.3223382044556249,10.73755848190373,0.8126724815692088,11.40351761164924,-1.0704808487421984,27.02,0.99
2,3.624871654265171,-0.32474666453799583,13.676045925869946,-2.636800347200422,7.675080972522791,3.2147958080616474,27.07,0.84
0,-1.0904172697995422,2.415035306530253,15.9069625980404,-7.490247540857157,34.993374073636566,-0.46444270706602986,27.07,1.66
7,-3.658763843224368,-0.8460519811508975,5.159713751004699,4.061344147161485,-10.757505106794696,-6.468461250131677,27.02,2.6
1,5.887080184743916,-1.5845547021226514,14.843368907492167,-3.383296148166054,19.293364160835214,-0.38458315065919946,27.12,0.81
2,3.558858609219498,0.30708846346006263,13.04524220821865,-1.5670688122422214,7.992554015007508,3.081862616336632,27.07,0.84
0,-1.0168359449178828,2.014411996659494,16.361938768947276,-8.233881072832858,34.98588181218919,-0.4916963660410253,27.07,1.66
7,-3.0784674562476466,-0.2843043518814874,6.616534995860928,4.254550449409191,-9.540625543521893,-5.7776595521729766,27.02,2.6
7,-3.259695103402427,-1.5714626092137918,5.72133462300208,4.751553278169709,-9.895280883660126,-6.63608592931587,27.02,2.6
3,-1.4867279384110923,-2.1663640800709416,4.33285678916145,8.476814601107689,-23.922843291468823,-2.45378954149403,27.07,1.28
6,4.212106940379957,-13.779896853958363,58.30612169554078,-4.525390686831904,3.545629856305803,-0.04626675454873641,27.07,0.40744545562893864
7,-3.3290449936353235,-0.7331558094736124,6.841248976702669,4.210043922239065,-9.571338332387585,-6.906826440378111,27.02,2.6
6,1.4194068069644312,-2.4547121269521277,10.990346294123164,-4.872937779158163,3.797575889730496,0.9438193888906554,27.07,0.88
4,6.648267942544962,0.12073917949080439,20.19033249542891,-0.41874096394307453,-19.4534331625745,-1.7234974420616869,27.12,1.9
0,-0.797954617940987,2.459931719327107,16.20510695192559,-7.814576453417367,35.247343586470876,-0.4040091957055665,27.07,1.66
1,3.7538869241926403,-0.9179956606961982,14.964843499724546,-4.170364751123744,20.283938556592254,-0.6669912092336654,27.12,0.81
9,-1.9049335711127338,-1.1257031757271174,7.3505331203521935,-1.289001574700864,19.879724357046705,0.7763667205253681,27.17,0.65
8,6.784162813543786,-1.4852537069625957,19.798549102748346,-0.7747958892574013,-0.19772590072565496,-3.8452485554763776,26.98,2.25
8,6.538826037322368,-0.29425475702138293,19.87862965276547,-0.8230484012428487,0.2032672170993358,-3.0449268105145655,26.98,2.25
6,1.0057061696808363,-2.0195049749122918,11.787438277011717,-6.511987611190122,3.1663909630581673,1.813363766872008,27.07,0.88
7,-2.6559049979800684,-1.8807372722180433,5.153051198549418,4.77361884532937,-9.970670251853907,-7.128875098165398,27.02,2.6
3,-1.2676259145039444,-2.7991215937135405,3.463607115054821,7.532759730971269,-24.287245302873618,-2.5270950273307253,27.07,1.28
9,-1.5256926645836422,-1.3776112473967725,6.588301656782662,79.07521836683534,81.92752947022458,25.680239955206602,27.17,1.776244137327856
4,7.041006644451872,-1.6390944790603115,19.510383510721848,-0.8052128730196876,-19.897603867102237,-0.3001512524775366,27.12,1.9
3,-1.8805319762055452,-1.7341649491514959,3.6839401186418077,7.3595674685279695,-24.863751199239953,-2.208398324439793,27.07,1.28
8,6.592920483775624,-0.38728706632974563,20.156738315009243,-1.0762394031902387,-0.0826872879175754,-2.7217623664645445,26.98,2.25
3,-1.9033668279515825,-1.36973530509299,3.850552628662994,8.268188017734335,-23.99697449817025,-2.401825804600205,27.07,1.28
6,1.2391779163234693,-2.474238792976666,10.861680040180989,-5.311260473660507,3.780202193824869,1.2335499383558617,27.07,0.88
2,3.8653396320448077,-0.3156331372877236,14.343198582863387,-0.7688804345413889,8.300692566745873,3.2849548920373857,27.07,0.84
5,-0.24159446927035938,1.1262943884773642,10.950465540541998,0.7103586601443175,10.201996554004241,-1.4115885451481112,27.02,0.99
6,1.3262339339336846,-2.380834671858156,12.754552693063697,-5.671608772067327,3.7491831781276597,0.6503754410926718,27.07,0.88
2,3.714232809579028,0.3593900281534401,13.866703077460933,-2.070122046427904,7.520713167374409,4.192349134676339,27.07,0.84
1,5.674795873468914,-0.2421515487352257,14.830114032552205,-3.548703539019289,18.967886910016112,-0.7828718615164258,27.12,0.81
3,-2.3587498086652703,-2.126322108180782,3.958312197734222,38.4199127131998,31.493890169609838,43.281694094998684,27.07,1.7858007136108003
6,1.3085340454773318,-1.8056565644581666,11.209365451283988,-5.858514076481292,4.419492076199445,0.1220169336165291,27.07,0.88
5,-0.8762465640036504,0.5817438679039746,10.449758753948048,0.34320682098611566,10.623372157591529,-1.071255669181179,27.02,0.99
5,-0.8196938254893882,-0.05869104246048709,10.888823355134223,0.21050202484745525,10.129858418339309,-1.5188152182644925,27.02,0.99
9,-1.2732391868038095,-0.9579765116734815,6.136034324727132,-0.6510398740008387,19.213393708025535,1.4154627174041359,27.17,0.65
9,0.36682544541865403,-1.1120178299380215,6.90783666498635,-1.3140184095912406,19.66071674410999,1.2860247877173874,27.17,0.65
2,4.534342315397294,-0.37045323541056885,14.715227007977253,-2.104114225822473,7.371942132233482,3.7868315801379806,27.07,0.84
2,4.185282354539834,-0.15029399061679705,13.641985171366164,-3.0620669892110284,8.757897324881775,3.5484856103778895,27.07,0.84
1,5.132822107920623,-1.1754333598564135,13.855038275696236,-2.4452178460893417,19.210277048115024,0.1727182940836669,27.12,0.81
6,0.9706393337912357,-2.3036350224807185,11.152298798524294,-5.959712419120843,4.35752166335185,0.5707804648030116,27.07,0.88
5,-0.47013300464290725,-0.7126498767847865,10.812914516847199,0.7447045737960452,10.693721117775322,-1.222812929555831,27.02,0.99
7,-2.1046601289804596,-0.41974537497392106,6.6244769528312535,5.157985241881731,-10.610156343421561,-5.913969783270005,27.02,2.6
0,-0.9563117220621977,1.911993425268981,15.915752524761018,-7.9505432438173935,34.14400912948459,-0.05377976636960846,27.07,1.66
0,-1.1331585262504804,1.8274363476949769,16.4389978973465,-7.309081576979344,35.436496335031414,-0.3802709264801406,27.07,1.66
2,3.789156913648877,-0.260444289632374,14.436010891038965,-2.318909945435161,8.361124078884606,2.9705201770227165,27.07,0.84
6,1.2208008409782152,-1.8485557047796717,11.771667051629713,-5.068455034485395,3.4126718271310654,1.4555135768284155,27.07,0.88
7,-9.424945757712884,-3.87328965890894,21.26693531938045,4.456624552071079,-10.372419318507147,-6.4766767767148705,27.02,4.232221374592963
8,7.367798609925293,-0.5133896393787027,20.97094018216243,-1.2758931005793637,0.5214277578251922,-2.293117182442179,26.98,2.25
2,3.39835302685627,-1.0322032313106346,15.045784460403056,-1.1070847120500384,8.080951505769335,3.0370957571383066,27.07,0.84
5,-0.6288163107166514,0.0451269246688772,11.092367219747572,0.6950398284773498,9.728942271161964,-1.0991276914010464,27.02,0.99
9,-1.1210743355707744,-1.1854797115230937,6.721092112820325,-1.495756670234547,19.765117826186923,0.5837506285526717,27.17,0.65
0,0.3280171224089258,1.634586492695691,16.632397891517076,-7.502968539693541,35.372962844334694,-0.4495181395589152,27.07,1.66
6,1.262720749443612,-2.081449149201659,12.168349442566731,-5.203746637330262,4.206441843460419,1.5165669765387149,27.07,0.88
5,-0.6035263782967697,-0.8314851537587695,10.601869366484316,1.3085069766236541,10.39696863737007,-0.17971353547783298,27.02,0.99
0,0.0,0.0,0.0,0.0,0.0,0.0,27.07,1.286929383066935
3,-1.212717734347041,-1.3494919134515646,4.555566658704946,7.9652756388829085,-24.389279632394576,-2.7794071673215592,27.07,1.28
4,7.1823526083833675,1.1838532946093663,19.864479664544476,-1.1056387090190996,-20.18270871512426,-1.7640951184844984,27.12,1.9
6,1.472908933259989,-1.9828760083018304,11.399876198357374,-6.017058917990008,4.159106514177485,0.8266158532207611,27.07,0.88
9,0.6449160704060849,-1.728207136138317,7.861977085197669,-1.1552321765599642,18.603996996782374,0.9770984934100304,27.17,0.65
7,-3.5741745391307918,-1.355326409691465,5.839557379172649,4.978814254453695,-9.700847876718532,-6.142826505552291,27.02,2.6
1,3.8250133543246596,-1.4244846389933687,14.235908962686713,-3.436032232963334,19.07510840198185,-0.5340496456771889,27.12,0.81
8,20.157631562743322,-4.397774274169086,61.47464130991389,-1.270830133820262,0.36552196789555896,-1.8633727914474592,26.98,4.110964479434008
5,-0.9159109193369267,-0.23549418611553138,10.293769839160142,1.0040766116871407,10.535066516090847,-1.1632629009745072,27.02,0.99
7,-3.4096643916742764,-1.3553658015413477,6.45706498748811,5.183894570693737,-10.230683047023248,-5.695913219074819,27.02,2.6
5,-0.9894025214789481,1.1658202794513954,11.339237709318922,-0.8982622938284981,10.637180457781488,0.22374629988544747,27.02,0.99
9,0.0,0.0,0.0,0.0,0.0,0.0,27.17,0.13432831256806274
8,7.654828103906517,-0.6997408835809248,20.297814723158776,-0.5979314800022715,1.4002164137979942,-2.93416869828918,26.98,2.25
6,0.47373674384217856,-1.7908790715930083,11.506187902060324,-5.0016221920696395,4.0680503246116455,0.16327881961260304,27.07,0.88
2,3.4668319620419172,0.3812180944429088,13.734680260162298,-2.567001176326867,8.966674678345374,3.5571303586492746,27.07,0.84
7,-2.2354290499281215,-0.8014212853712348,6.1798673461321565,5.0809966085228115,-9.875947878277941,-6.31452423716082,27.02,2.6
9,-1.6882854538216772,-0.6486600091247876,7.898389576529132,-0.736708264340026,19.37627647228876,0.6259704402638127,27.17,0.65
0,-1.0419343381565356,2.68855435800433,17.0429320650702,-8.197351706699813,34.40714126896315,-0.5008528583649932,27.07,1.66
0,0.21934276432691913,1.3609942536718407,16.381628184811273,-7.600060098725712,35.669866452953315,0.6779901350491631,27.07,1.66
1,5.364158276561855,-0.42478315704550085,14.919772664328004,-2.5400699791903714,18.127086392518343,-0.7460036113635684,27.12,0.81
3,-1.5472042778530273,-2.0774075440254918,4.366961243503196,9.12595962310038,-24.546692210797378,-2.685963011604689,27.07,1.28
1,5.07400785684481,-0.42204815973064924,14.37270177123638,-3.8351979650365586,18.886113853153017,-0.6349652385020901,27.12,0.81
1,4.275614398812514,-0.3361637301594227,13.780839699948936,-4.197580731937769,20.876838505760045,-0.8221123944969975,27.12,0.81
5,-1.7905441521762628,1.3460086721028799,11.054563553085247,0.23956204752167198,10.399035168065783,-0.8535636492715409,27.02,0.99
3,-1.32901950647908,-1.632233612281794,4.226777460372543,7.917144501219513,-24.905541633239185,-2.7040920369315327,27.07,1.28
5,-1.0556232936573857,-0.23853867456641095,11.056870946792715,0.434318765010085,11.285836454381931,-0.9590073594063195,27.02,0.99
9,-0.5974212743046733,-0.9173865904965801,7.243564774256101,-0.9678129961996181,19.79791217206902,1.2948636410951884,27.17,0.65
1,4.587861493632577,-0.9737170201324374,14.712801579203957,-3.235360254210232,18.861383904997457,-0.8500582803391783,27.12,0.81
6,0.7499140176229586,-2.2181393638094433,12.15066115979343,-5.532424182664518,4.456274763076187,1.1517775533124315,27.07,0.88
3,-1.0136859676529406,-1.9590004424721474,4.7147763937449785,7.209849822845707,-23.687158128098005,-2.8285628115208126,27.07,1.28
2,3.7184027652545644,-0.7966226088544875,14.659679037584437,-1.6549627356770693,7.104579471907069,2.993176545968044,27.07,0.84
6,1.5757254017896674,-1.4568118408065356,11.086127470528936,-5.683552221882837,3.769188202186687,0.26431522495642934,27.07,0.88
3,-1.1343203823752315,-1.9713270763424222,3.7409129685051843,7.810760347023333,-24.418137840050353,-2.473571972513715,27.07,1.28
3,-0.9603066904910269,-1.238268262779962,4.555847095750001,7.290068716410678,-24.210558634843927,-3.5100482813380824,27.07,1.28
7,-2.4017421243911885,-1.2678862425769069,6.950035817104548,45.45455986691148,71.9907240311234,45.601876599768374,27.02,5.816384737388976
3,-1.5443958171836243,-2.6429898423442313,4.435918466268482,7.733499660920684,-23.015116764846006,-2.8982026009053374,27.07,1.28
8,6.464008599948947,-1.1783523054415974,19.697798527162284,-0.8976349074699214,0.050879252179257026,-2.759394970960273,26.98,2.25
1,4.394354016498281,-1.387724643526811,15.61592326555659,-2.978527568718835,19.839469935483415,-0.9344903702877305,27.12,0.81
2,15.812229043607626,-2.5936250312475746,64.94610886286165,-2.5979431326831603,8.131029216636072,3.5719340120777945,27.07,1.307560216654007
6,0.7878164449842208,-1.1010284164043935,11.776872394365284,-5.347069893677025,3.4725996462210458,1.4924603671385888,27.07,0.88
3,-1.7044799737550775,-2.3338785984152493,3.464580051154066,7.991746118709845,-25.00746251325017,-3.7625701415279975,27.07,1.28
0,-0.8241141162712309,2.0970673121488863,15.286016930232165,-8.710065867021916,35.27760530332249,-0.09759650854679247,27.07,1.66
1,5.429502959699208,-1.7890673576297975,14.685021866901234,-4.4443159505801795,19.157113076428864,-0.7069453289192602,27.12,0.81
3,-1.4661914267042675,-2.183810030066743,3.30680987920268,7.702867546512919,-23.772331216215626,-2.866216588236931,27.07,1.28
4,6.531120403583051,-1.061665992820339,20.124242880726403,-1.49747769994891,-19.22181208580403,-1.073941392789634,27.12,1.9
2,4.296935926517072,-0.2976908014759129,13.740094308210415,-1.2291060906393567,7.893768554780165,3.190915609845614,27.07,0.84
2,2.9189727784040325,-1.2750799488022249,14.330349816809521,-1.6738811154371627,6.700358034301086,3.6150021690333354,27.07,0.84
4,7.262946775430466,-0.13349246025866224,18.643587243390545,-0.5130793408313381,-19.183598555038028,-0.7352524530593383,27.12,1.9
0,-1.2269719508958437,2.2028146228577716,16.09751101884052,-6.856318149791322,34.661726144605,-0.6217990233096832,27.07,1.66
5,-0.7857944406738153,0.18884602781046497,9.988849955164822,0.38392335367665564,10.76291442781725,-1.4030777419373348,27.02,0.99
2,3.6352617518100003,-0.5594569354844862,14.431945078612,-1.8889996208279105,8.451443823402316,4.006744274995592,27.07,0.84
0,-0.3461882376371108,2.2663413804489148,16.258378190589845,-7.039741139018317,35.14271334970086,0.46169278075943077,27.07,1.66
1,4.899303799573573,-1.160626204068179,14.344846594425706,-4.063505266848163,20.377583452259877,-0.4989576561946411,27.12,0.81
1,14.076803340678644,-6.2246541182587976,61.448379266539185,-2.999649160506695,18.56048683245374,-0.03820411523981476,27.12,0.806925795449216
8,6.75833873698491,-0.3723627880067909,19.40402761772082,-1.0202887728691545,0.8418447293253369,-2.1495510626964465,26.98,2.25
2,4.35305727859519,0.2021845637756172,14.048849132191128,-1.7386205607208538,8.310095230731806,2.547212567935964,27.07,0.84
7,-3.2324646262098113,-0.9414930424307177,6.25416787809457,4.994673165233057,-10.472763386086672,-6.688342241611222,27.02,2.6
4,7.063321433260724,0.161013219206446,19.6283000849224,-1.0020889626596838,-20.04228215869572,-0.7559238798113336,27.12,1.9
9,-1.2820319656666612,-1.3313361194762963,7.462105682591314,44.17593379583901,59.56170009170164,34.99582606934085,27.17,1.7750488562405584
4,5.800768604345272,-0.44195417891766814,19.61441691893511,-0.9996601472041647,-19.4229982470513,-1.1542682994614304,27.12,1.9
9,-1.4065675177919128,-1.450556406676059,7.577470676758537,-0.5264991398450786,19.32268726629102,1.1650711404428278,27.17,0.65
2,3.6940184778736302,-0.04376420560513598,13.871156537714011,-2.5813652874476882,7.488891966149007,3.7426331703833333,27.07,0.84
4,6.520183910940931,-0.5251478154301599,19.29711256690657,-0.6226799554024168,-18.859390698286767,-0.09214786934662622,27.12,1.9
5,-0.8392486470267656,0.06035280330798946,10.816594852403936,0.024861694296837322,9.721821528978843,-0.5686017453650969,27.02,0.99
9,-0.648935259939013,-2.034633836832155,7.555164159839907,-0.3961380170445725,20.720141790317022,0.16402615666849563,27.17,0.65
2,4.369032342145794,0.3226363116444768,14.233272500147022,-1.6457263952210879,8.755713892337118,4.004506021612426,27.07,0.84
7,-2.7749482686811513,-1.2591105870874124,6.324358239756906,4.88544732920738,-9.314153936365248,-6.125895700168143,27.02,2.6
9,-1.1312297364319577,-0.5741707106128783,8.032441370064534,-0.6914339610775521,19.409981331918807,0.923901293458206,27.17,0.65
7,-3.982881437815953,-1.5296214988840806,6.214635674385633,4.923326149049365,-9.957069332789386,-5.7889973011788,27.02,2.6
7,-2.918915854142427,-0.26776167885777424,6.615023244050528,4.183449491986163,-9.556446208192563,-6.9190740374778645,27.02,2.6
0,-0.7918320493036677,1.605178776414267,15.819949101944257,-8.02998576789598,35.670136270610975,-0.2291266427637208,27.07,1.66
